pitch,roll,yaw,accelX,accelY,accelZ,latitude,longitude,altitude,GPS_fix
0,0,0,0,0,0,0,0,0,0
0,0,0,0,0,0,0,0,0,0
0,0,0,0,0,0,0,0,0,0
0,0,0,0,0,0,0,0,0,0
0,0,0,0,0,0,0,0,0,0
0,0,0,0,0,0,0,0,0,0
0,0,0,0,0,0,0,0,0,0
0,0,0,0,0,0,0,0,0,0
-1984.6,-96.37,96.33,1455.92,1574.78,4073.91,0,0,0,0
-784.6,-124.37,-383.67,1588.92,-15.22,4144.91,0,0,0,0
-1170.6,158.63,-250.67,1467.92,-482.22,3919.91,0,0,0,0
-1610.6,13.63,-418.67,1500.92,-1759.22,3418.91,0,0,0,0
-4435.6,-342.37,-637.67,1295.92,-3967.22,3559.91,0,0,0,0
-3506.6,-750.37,-1775.67,3635.92,-4470.22,-1363.09,0.0,0.0,-1.7,0.0
-2552.6,-610.37,-1221.67,5147.92,-4264.22,-4693.09,0,0,0,0
-1969.6,-229.37,-935.67,5805.92,-3865.22,-6148.09,0,0,0,0
-1237.6,-480.37,-679.67,6107.92,-2799.22,-6548.09,0,0,0,0
-1579.6,-999.37,-467.67,5801.92,-2183.22,-8904.09,0.0,0.0,-1.7,0.0
-936.6,-386.37,-289.67,5482.92,-1543.22,-9899.09,0,0,0,0
-1843.6,-311.37,-267.67,5073.92,-885.22,-9699.09,0,0,0,0
-2017.6,-1264.37,82.33,4309.92,994.78,-10683.09,0,0,0,0
-894.6,-1211.37,-32.67,2600.92,1443.78,-12669.09,0,0,0,0
-1502.6,-505.37,162.33,1501.92,2334.78,-12583.09,0,0,0,0
-1198.6,-45.37,63.33,1361.92,3096.78,-12146.09,0,0,0,0
-1108.6,79.63,10.33,1501.92,3737.78,-11926.09,0,0,0,0
-887.6,4.63,-162.67,1638.92,4429.78,-12050.09,0,0,0,0
-1043.6,273.63,-254.67,1866.92,4637.78,-12503.09,0,0,0,0
-700.6,13.63,-168.67,2205.92,4974.78,-11731.09,0,0,0,0
-407.6,-115.37,-330.67,2257.92,5133.78,-11653.09,0,0,0,0
-473.6,-111.37,-335.67,2031.92,5203.78,-11844.09,0,0,0,0
-243.6,-147.37,-410.67,2004.92,5093.78,-12140.09,0,0,0,0
72.4,-71.37,-466.67,1937.92,4713.78,-12217.09,0,0,0,0
208.4,-97.37,-438.67,1988.92,3537.78,-12080.09,0,0,0,0
864.4,145.63,-629.67,1917.92,2710.78,-12189.09,0.0,0.0,-1.7,0.0
726.4,11.63,-574.67,2189.92,570.78,-11836.09,0,0,0,0
167.4,165.63,-355.67,2282.92,-637.22,-11666.09,0,0,0,0
396.4,227.63,-406.67,2723.92,-1363.22,-11102.09,0,0,0,0
724.4,496.63,-406.67,3138.92,-2467.22,-10125.09,0.0,0.0,-1.7,0.0
854.4,858.63,-488.67,3650.92,-3303.22,-8488.09,0,0,0,0
1115.4,768.63,-302.67,4164.92,-4248.22,-6681.09,0,0,0,0
2397.4,954.63,397.33,4067.92,-4742.22,-3304.09,0,0,0,0
1135.4,504.63,129.33,3039.92,-5014.22,20.91,0,0,0,0
1685.4,358.63,73.33,2827.92,-3569.22,1389.91,0,0,0,0
1568.4,178.63,48.33,1815.92,-931.22,3971.91,0,0,0,0
1169.4,232.63,253.33,1665.92,169.78,3756.91,0,0,0,0
938.4,172.63,-281.67,1482.92,2352.78,4473.91,0,0,0,0
0,0,0,0,0,0,0,0,0,0
147.4,180.63,-386.67,1246.92,4340.78,4294.91,0,0,0,0
-597.6,-139.37,-343.67,1347.92,4296.78,4485.91,0,0,0,0
-704.6,-134.37,-350.67,1362.92,4278.78,4334.91,0,0,0,0
-580.6,-72.37,-290.67,1356.92,4186.78,4241.91,0,0,0,0
-551.6,-94.37,-290.67,1329.92,4122.78,4372.91,0,0,0,0
-545.6,-58.37,-294.67,1398.92,4188.78,4214.91,0,0,0,0
-567.6,-55.37,-315.67,1339.92,4262.78,4138.91,0,0,0,0
-503.6,-30.37,-292.67,1287.92,4177.78,4330.91,0,0,0,0
0,0,0,0,0,0,0,0,0,0
-514.6,-10.37,-293.67,1294.92,4202.78,4329.91,0,0,0,0
-568.6,-38.37,-312.67,1234.92,4216.78,4228.91,0,0,0,0
-521.6,-64.37,-293.67,1226.92,4257.78,4292.91,0,0,0,0
-582.6,-47.37,-311.67,1286.92,4221.78,4234.91,0,0,0,0
-464.6,-7.37,-281.67,1274.92,4177.78,4231.91,0,0,0,0
-533.6,-56.37,-293.67,1224.92,4256.78,4253.91,0,0,0,0
-553.6,-63.37,-312.67,1238.92,4300.78,4229.91,0,0,0,0
-513.6,-31.37,-292.67,1235.92,4182.78,4274.91,0.0,0.0,-1.7,0.0
-509.6,-32.37,-296.67,1196.92,4240.78,4272.91,0,0,0,0
-553.6,-103.37,-294.67,1224.92,4283.78,4120.91,0,0,0,0
-563.6,-35.37,-313.67,1182.92,4215.78,4224.91,0,0,0,0
-629.6,-74.37,-319.67,1191.92,4233.78,4240.91,0.0,0.0,-1.7,0.0
-530.6,-71.37,-300.67,1188.92,4145.78,4247.91,0,0,0,0
-663.6,-63.37,-331.67,1148.92,4067.78,4330.91,0,0,0,0
-1063.6,-270.37,-324.67,1283.92,3841.78,4371.91,0,0,0,0
-640.6,-75.37,-333.67,1272.92,3472.78,4516.91,0,0,0,0
-1279.6,-266.37,-233.67,1560.92,3149.78,4236.91,0,0,0,0
-1273.6,-243.37,-436.67,1680.92,2049.78,4190.91,0,0,0,0
-1315.6,-7.37,-327.67,2227.92,435.78,4096.91,0.0,0.0,-1.7,0.0
-1359.6,-221.37,-178.67,1927.92,162.78,3723.91,0,0,0,0
-1115.6,-97.37,-276.67,2100.92,-1474.22,3852.91,0,0,0,0
-1450.6,-202.37,-380.67,2119.92,-1878.22,3128.91,0,0,0,0
-1654.6,-344.37,-343.67,2522.92,-2937.22,1986.91,0.0,0.0,-1.7,0.0
-1650.6,-230.37,-208.67,2539.92,-3839.22,1112.91,0,0,0,0
-1814.6,-55.37,-140.67,2369.92,-5189.22,441.91,0,0,0,0
-2533.6,-153.37,-82.67,2162.92,-5983.22,-2525.09,0,0,0,0
-2287.6,-99.37,-91.67,2198.92,-5431.22,-4699.09,0,0,0,0
-2213.6,-226.37,-138.67,2010.92,-4898.22,-6618.09,0,0,0,0
-2465.6,-63.37,-128.67,1399.92,-4164.22,-8139.09,0,0,0,0
-2138.6,-398.37,-228.67,1777.92,-2837.22,-10640.09,0,0,0,0
-1779.6,-85.37,12.33,1689.92,-901.22,-11516.09,0,0,0,0
-1230.6,171.63,-19.67,1305.92,397.78,-12271.09,0,0,0,0
-935.6,156.63,-148.67,1612.92,1256.78,-12763.09,0,0,0,0
-489.6,-111.37,-273.67,1713.92,1416.78,-12433.09,0,0,0,0
-496.6,-92.37,-213.67,1724.92,1124.78,-12103.09,0,0,0,0
-475.6,-72.37,-314.67,1622.92,479.78,-12794.09,0,0,0,0
399.4,1867.63,-3544.67,2010.92,4209.78,-9961.09,0,0,0,0
-845.6,-945.37,3371.33,2421.92,-3296.22,-13842.09,0,0,0,0
513.4,1104.63,-1859.67,3539.92,10193.78,-11495.09,0.0,0.0,-1.7,0.0
-984.6,1176.63,-1571.67,3128.92,-9344.22,-10086.09,0,0,0,0
-1379.6,-1816.37,2159.33,2239.92,10502.78,-10666.09,0,0,0,0
-638.6,475.63,-1898.67,2571.92,-8300.22,-12365.09,0,0,0,0
-1544.6,-787.37,1318.33,2816.92,12277.78,-9990.09,0.0,0.0,-1.7,0.0
-922.6,180.63,-1967.67,2392.92,-7072.22,-11956.09,0,0,0,0
-1021.6,-360.37,713.33,2549.92,12284.78,-9543.09,0,0,0,0
-735.6,216.63,-814.67,1869.92,-10138.22,-13466.09,0,0,0,0
-835.6,-190.37,-567.67,2894.92,13462.78,-11965.09,0,0,0,0
-463.6,-261.37,2001.33,1447.92,-6940.22,-11024.09,0,0,0,0
-950.6,1308.63,-4084.67,1624.92,9670.78,-11010.09,0,0,0,0
-579.6,-1099.37,4069.33,2136.92,-3141.22,-10948.09,0,0,0,0
-448.6,1807.63,-5244.67,-1189.08,1564.78,-11494.09,0,0,0,0
0,0,0,0,0,0,0,0,0,0
-411.6,-1086.37,3775.33,1296.92,-2818.22,-12831.09,0,0,0,0
-933.6,1310.63,-4660.67,287.92,3989.78,-10782.09,0,0,0,0
-156.6,-293.37,773.33,3134.92,-25.22,-12289.09,0,0,0,0
-729.6,41.63,-625.67,2968.92,3070.78,-12470.09,0,0,0,0
-444.6,-157.37,-233.67,3123.92,2290.78,-12019.09,0,0,0,0
-621.6,-75.37,-236.67,3308.92,2522.78,-11794.09,0,0,0,0
-554.6,-38.37,-346.67,3000.92,2335.78,-12081.09,0,0,0,0
-552.6,-62.37,-323.67,3208.92,2773.78,-11817.09,0.0,0.0,-1.7,0.0
-582.6,-21.37,-301.67,3146.92,2529.78,-11928.09,0,0,0,0
-510.6,-5.37,-340.67,3228.92,2473.78,-12042.09,0,0,0,0
-527.6,-19.37,-306.67,3160.92,2482.78,-11980.09,0,0,0,0
-580.6,-62.37,-300.67,3279.92,2662.78,-11956.09,0.0,0.0,-1.7,0.0
-593.6,-4.37,-292.67,3337.92,2352.78,-11885.09,0,0,0,0
-568.6,-20.37,-300.67,3334.92,2632.78,-11864.09,0,0,0,0
-527.6,-32.37,-313.67,3421.92,2552.78,-11947.09,0,0,0,0
-425.6,205.63,-320.67,3829.92,2458.78,-11921.09,0.0,0.0,-1.7,0.0
-180.6,596.63,-372.67,4281.92,2229.78,-11598.09,0,0,0,0
-515.6,449.63,-355.67,5112.92,1797.78,-11099.09,0,0,0,0
-199.6,954.63,-302.67,5837.92,2061.78,-10958.09,0,0,0,0
-18.6,1358.63,-247.67,6840.92,1345.78,-8923.09,0,0,0,0
-224.6,1332.63,-241.67,7999.92,1482.78,-7354.09,0,0,0,0
-269.6,1107.63,-139.67,8469.92,672.78,-5753.09,0,0,0,0
-653.6,1068.63,-458.67,8902.92,1087.78,-4702.09,0.0,0.0,-1.7,0.0
-695.6,674.63,-190.67,8514.92,804.78,-3414.09,0,0,0,0
-858.6,772.63,-140.67,8515.92,82.78,-1751.09,0,0,0,0
-966.6,564.63,-149.67,8542.92,-110.22,-2034.09,0,0,0,0
-1455.6,561.63,-408.67,7896.92,1102.78,-1541.09,0.0,0.0,-1.7,0.0
-1201.6,499.63,-359.67,7012.92,-662.22,-91.09,0,0,0,0
-581.6,147.63,-415.67,6992.92,-714.22,5.91,0,0,0,0
-318.6,-229.37,-502.67,7780.92,342.78,-175.09,0,0,0,0
-504.6,-222.37,-306.67,7498.92,-647.22,-162.09,0,0,0,0
-919.6,-1149.37,-326.67,8096.92,-279.22,-833.09,0,0,0,0
-1245.6,-3884.37,-364.67,6851.92,-95.22,-2708.09,0,0,0,0
-60.6,-2391.37,-385.67,7022.92,-1210.22,-7008.09,0,0,0,0
281.4,-2434.37,-315.67,5668.92,-549.22,-8933.09,0,0,0,0
0,0,0,0,0,0,0,0,0,0
-537.6,-592.37,-278.67,1935.92,-1855.22,-12068.09,0,0,0,0
-508.6,-188.37,-428.67,1579.92,-2158.22,-11304.09,0,0,0,0
-664.6,24.63,-681.67,1782.92,-1610.22,-11564.09,0,0,0,0
-715.6,190.63,-513.67,2290.92,-1405.22,-11167.09,0,0,0,0
-261.6,-1.37,-500.67,2517.92,-1616.22,-11136.09,0,0,0,0
-151.6,397.63,-791.67,3058.92,-2185.22,-10633.09,0,0,0,0
-563.6,155.63,-464.67,3615.92,-2223.22,-10514.09,0,0,0,0
-530.6,-120.37,-376.67,3812.92,-1901.22,-10547.09,0,0,0,0
-565.6,117.63,-484.67,3977.92,-1796.22,-10039.09,0,0,0,0
-112.6,240.63,-478.67,4096.92,-1764.22,-9994.09,0,0,0,0
-385.6,59.63,-277.67,4266.92,-2347.22,-9444.09,0,0,0,0
-260.6,-549.37,-466.67,3780.92,-2655.22,-9998.09,0,0,0,0
-821.6,-235.37,-436.67,3548.92,-2260.22,-10026.09,0,0,0,0
-741.6,-166.37,-503.67,3740.92,-1586.22,-10734.09,0,0,0,0
-567.6,-93.37,-769.67,3946.92,-2496.22,-10584.09,0,0,0,0
349.4,369.63,-702.67,4328.92,-805.22,-9515.09,0,0,0,0
0,0,0,0,0,0,0,0,0,0
1078.4,847.63,-58.67,4858.92,-2901.22,-7741.09,0,0,0,0
1870.4,1083.63,343.33,4858.92,-3601.22,-5616.09,0,0,0,0
3722.4,2066.63,1308.33,3024.92,-4286.22,-392.09,0,0,0,0
1599.4,386.63,671.33,1377.92,-4216.22,2924.91,0,0,0,0
1563.4,176.63,588.33,1105.92,-1644.22,3449.91,0,0,0,0
7.4,-102.37,-139.67,334.92,460.78,4404.91,0,0,0,0
-722.6,-93.37,-347.67,396.92,549.78,4501.91,0,0,0,0
-8124.6,-2074.37,-2393.67,544.92,-3264.22,4809.91,0,0,0,0
-4534.6,-172.37,341.33,4201.92,-3558.22,-9961.09,0,0,0,0
-1003.6,238.63,-271.67,3327.92,-1850.22,-11019.09,0,0,0,0
-525.6,273.63,-389.67,3543.92,-1679.22,-10842.09,0,0,0,0
-402.6,-119.37,-333.67,3723.92,-1926.22,-10344.09,0,0,0,0
-575.6,6.63,-218.67,3816.92,-1966.22,-10446.09,0,0,0,0
-634.6,63.63,-240.67,3862.92,-1851.22,-10251.09,0,0,0,0
-485.6,-41.37,-246.67,3830.92,-1762.22,-10617.09,0.0,0.0,-1.7,0.0
-896.6,13.63,550.33,3725.92,-2504.22,-10209.09,0,0,0,0
-692.6,-224.37,-6.67,3357.92,-2138.22,-10786.09,0,0,0,0
-532.6,-71.37,-247.67,3260.92,-1997.22,-10582.09,0,0,0,0
-559.6,-160.37,-163.67,3151.92,-1475.22,-10733.09,0,0,0,0
-632.6,-150.37,-348.67,2855.92,-1811.22,-10677.09,0,0,0,0
-627.6,-205.37,-101.67,2784.92,-1704.22,-10729.09,0,0,0,0
-582.6,-73.37,-136.67,2403.92,-2128.22,-10993.09,0,0,0,0
-554.6,-87.37,-271.67,2382.92,-1862.22,-10938.09,0,0,0,0
0,0,0,0,0,0,0,0,0,0
0,0,0,0,0,0,0,0,0,0
-539.6,-176.37,-217.67,2187.92,-1716.22,-11064.09,0,0,0,0
-649.6,157.63,-250.67,2470.92,-1726.22,-10894.09,0,0,0,0
-561.6,-23.37,-343.67,2482.92,-1656.22,-11132.09,0,0,0,0
1282.4,883.63,-1720.67,3075.92,-2535.22,-8676.09,0,0,0,0
5101.4,-436.37,1137.33,3808.92,-6582.22,-8259.09,0,0,0,0
2274.4,-176.37,1389.33,1100.92,-5244.22,-355.09,0,0,0,0
1323.4,-21.37,715.33,623.92,-3875.22,1009.91,0,0,0,0
1489.4,312.63,-49.67,-1412.08,-1271.22,4461.91,0.0,0.0,-1.7,0.0
199.4,-105.37,-365.67,-779.08,-118.22,4012.91,0,0,0,0
454.4,-148.37,-231.67,-748.08,954.78,4337.91,0,0,0,0
-10.6,181.63,-249.67,-690.08,1610.78,4935.91,0,0,0,0
-274.6,-101.37,-209.67,-586.08,2336.78,4317.91,0,0,0,0
-561.6,-58.37,-291.67,-585.08,2309.78,4272.91,0,0,0,0
-500.6,14.63,-249.67,-552.08,2368.78,4039.91,0,0,0,0
-565.6,87.63,-351.67,-1014.08,2256.78,4250.91,0,0,0,0
-558.6,130.63,-329.67,-992.08,1612.78,4634.91,0,0,0,0
-771.6,-811.37,303.33,-2600.08,4329.78,5755.91,0,0,0,0
-1129.6,65.63,-491.67,908.92,316.78,998.91,0,0,0,0
-875.6,-1790.37,836.33,672.92,-1112.22,1744.91,0,0,0,0
-140.6,2162.63,-1243.67,-3689.08,7621.78,13773.91,0.0,0.0,-1.7,0.0
-988.6,-285.37,-552.67,3025.92,-4086.22,-1041.09,0,0,0,0
-1058.6,-1306.37,-41.67,-2883.08,4982.78,8815.91,0,0,0,0
-993.6,38.63,-566.67,3246.92,-3135.22,-2870.09,0,0,0,0
-687.6,-1353.37,570.33,-1931.08,1368.78,8464.91,0.0,0.0,-1.7,0.0
-358.6,1965.63,-872.67,-1124.08,2200.78,6949.91,0,0,0,0
-723.6,-1164.37,102.33,2333.92,-4483.22,-2141.09,0,0,0,0
-823.6,-178.37,-319.67,-2718.08,3273.78,10543.91,0,0,0,0
-649.6,94.63,-272.67,2390.92,-3921.22,-783.09,0,0,0,0
-897.6,-1113.37,-62.67,-2009.08,1325.78,6822.91,0,0,0,0
-864.6,324.63,-695.67,1905.92,-2050.22,-1165.09,0,0,0,0
-102.6,-1083.37,160.33,-560.08,-183.22,3941.91,0,0,0,0
-257.6,2042.63,-1146.67,-1586.08,3193.78,7073.91,0,0,0,0
0,0,0,0,0,0,0,0,0,0
-522.6,560.63,-1276.67,1083.92,-1194.22,-609.09,0,0,0,0
-403.6,-1405.37,911.33,-895.08,667.78,4686.91,0,0,0,0
-409.6,1042.63,-1041.67,-213.08,-286.22,1156.91,0,0,0,0
-742.6,-542.37,-314.67,900.92,-2753.22,2890.91,0,0,0,0
-678.6,-80.37,-350.67,478.92,391.78,4037.91,0,0,0,0
-475.6,-191.37,-417.67,521.92,-846.22,4050.91,0,0,0,0
-274.6,-8.37,-1298.67,783.92,-1962.22,4430.91,0,0,0,0
928.4,-428.37,-1450.67,2329.92,1607.78,3153.91,0.0,0.0,-1.7,0.0
726.4,-22.37,-629.67,2201.92,2909.78,4023.91,0,0,0,0
-127.6,-173.37,-671.67,2434.92,4923.78,3392.91,0,0,0,0
-216.6,14.63,-375.67,2111.92,4951.78,3669.91,0,0,0,0
-380.6,-50.37,-233.67,2213.92,4984.78,3617.91,0,0,0,0
-562.6,-96.37,-302.67,2207.92,5063.78,3759.91,0,0,0,0
-464.6,-99.37,-284.67,2187.92,5344.78,3584.91,0,0,0,0
-421.6,-239.37,-82.67,2220.92,5206.78,3601.91,0.0,0.0,-1.7,0.0
-966.6,-391.37,-148.67,2539.92,5508.78,3827.91,0,0,0,0
-2401.6,-766.37,-1133.67,3402.92,3022.78,3939.91,0,0,0,0
-672.6,-252.37,205.33,4139.92,1552.78,1929.91,0,0,0,0
-1613.6,796.63,106.33,4217.92,-2940.22,4917.91,0,0,0,0
-2445.6,-536.37,619.33,2898.92,-2430.22,1854.91,0,0,0,0
-1827.6,1131.63,-399.67,2778.92,-4234.22,738.91,0,0,0,0
-1104.6,266.63,-255.67,1199.92,-4954.22,536.91,0,0,0,0
-1304.6,338.63,-197.67,876.92,-4446.22,267.91,0,0,0,0
0,0,0,0,0,0,0,0,0,0
0,0,0,0,0,0,0,0,0,0
-70.6,-282.37,-517.67,2065.92,-4535.22,-607.09,0,0,0,0
711.4,-2109.37,-339.67,2694.92,-4194.22,645.91,0,0,0,0
96.4,-442.37,-726.67,3120.92,-3782.22,940.91,0,0,0,0
-796.6,-146.37,-229.67,3298.92,-3972.22,657.91,0,0,0,0
-695.6,103.63,-254.67,3254.92,-4235.22,379.91,0,0,0,0
-1010.6,-11.37,-235.67,3166.92,-4462.22,-28.09,0,0,0,0
-384.6,507.63,-578.67,2966.92,-4462.22,-111.09,0,0,0,0
-293.6,120.63,-252.67,2997.92,-4618.22,543.91,0.0,0.0,-1.7,0.0
-308.6,-51.37,-221.67,2871.92,-4316.22,1054.91,0,0,0,0
-500.6,130.63,-261.67,2918.92,-3916.22,481.91,0,0,0,0
410.4,-134.37,-125.67,2657.92,-4173.22,776.91,0,0,0,0
-262.6,-37.37,-325.67,2812.92,-3440.22,1639.91,0.0,0.0,-1.7,0.0
-424.6,-166.37,-302.67,2917.92,-3254.22,1782.91,0,0,0,0
-504.6,-261.37,-287.67,2856.92,-2981.22,1919.91,0,0,0,0
-533.6,-88.37,-280.67,2961.92,-3189.22,1815.91,0,0,0,0
-712.6,-158.37,-251.67,3056.92,-3318.22,1730.91,0,0,0,0
-520.6,-115.37,-339.67,3052.92,-3472.22,1741.91,0,0,0,0
0,0,0,0,0,0,0,0,0,0
0,0,0,0,0,0,0,0,0,0
0,0,0,0,0,0,0,0,0,0
0,0,0,0,0,0,0,0,0,0
0,0,0,0,0,0,0,0,0,0
0,0,0,0,0,0,0,0,0,0
0,0,0,0,0,0,0,0,0,0
-4.97,-2.73,0.19,-30.98,-19.9,4051.75,0,0,0,0
0,0,0,0,0,0,0,0,0,0
0,0,0,0,0,0,0,0,0,0
-1.97,-1.73,0.19,8.02,23.1,4078.75,0,0,0,0
16.03,0.27,-0.81,37.02,0.1,4144.75,0,0,0,0
-19.97,-0.73,1.19,-13.98,-6.9,4053.75,0,0,0,0
-21.97,-4.73,0.19,-9.98,-43.9,4035.75,0.0,0.0,-1.7,0.0
1.03,0.27,0.19,29.02,-1.9,4113.75,0,0,0,0
2.03,1.27,1.19,12.02,8.1,4070.75,0,0,0,0
2.03,-1.73,0.19,15.02,14.1,4107.75,0,0,0,0
-3.97,-1.73,0.19,-1.98,-2.9,4063.75,0,0,0,0
1.03,1.27,-0.81,-15.98,12.1,4074.75,0,0,0,0
5.03,-1.73,-0.81,-16.98,71.1,4102.75,0,0,0,0
3.03,-1.73,-0.81,9.02,49.1,4106.75,0.0,0.0,-1.7,0.0
3.03,-0.73,-0.81,26.02,26.1,4112.75,0,0,0,0
-2.97,-0.73,0.19,10.02,12.1,4101.75,0,0,0,0
2.03,-0.73,0.19,-7.98,-8.9,4108.75,0,0,0,0
5.03,-0.73,-0.81,35.02,15.1,4112.75,0,0,0,0
-9.97,-0.73,1.19,-1.98,2.1,4073.75,0,0,0,0
3.03,0.27,0.19,-2.98,19.1,4073.75,0,0,0,0
-1.97,-1.73,0.19,7.02,49.1,4081.75,0,0,0,0
0.03,-0.73,-0.81,-5.98,22.1,4103.75,0,0,0,0
0,0,0,0,0,0,0,0,0,0
1.03,0.27,0.19,5.02,22.1,4094.75,0,0,0,0
-1.97,-1.73,1.19,6.02,36.1,4073.75,0,0,0,0
-1.97,0.27,0.19,9.02,41.1,4096.75,0,0,0,0
-2.97,0.27,0.19,14.02,19.1,4082.75,0,0,0,0
1.03,-1.73,0.19,7.02,18.1,4108.75,0,0,0,0
2.03,0.27,-0.81,21.02,11.1,4113.75,0,0,0,0
-0.97,-0.73,0.19,25.02,39.1,4096.75,0,0,0,0
1.03,-0.73,0.19,19.02,25.1,4096.75,0,0,0,0
0.03,-0.73,-0.81,9.02,37.1,4111.75,0,0,0,0
1.03,0.27,0.19,18.02,39.1,4082.75,0,0,0,0
-2.97,-1.73,0.19,17.02,36.1,4081.75,0,0,0,0
1.03,-0.73,0.19,16.02,30.1,4101.75,0,0,0,0
1.03,-0.73,-0.81,17.02,39.1,4085.75,0,0,0,0
0.03,0.27,0.19,14.02,15.1,4105.75,0,0,0,0
0.03,0.27,-0.81,41.02,42.1,4080.75,0,0,0,0
0,0,0,0,0,0,0,0,0,0
0,0,0,0,0,0,0,0,0,0
-0.97,0.27,0.19,18.02,35.1,4071.75,0,0,0,0
-0.97,-0.73,0.19,19.02,58.1,4095.75,0,0,0,0
-0.97,-0.73,0.19,28.02,43.1,4097.75,0,0,0,0
-1.97,-0.73,0.19,15.02,35.1,4088.75,0,0,0,0
-0.97,-0.73,0.19,25.02,38.1,4087.75,0,0,0,0
-0.97,-0.73,0.19,15.02,47.1,4090.75,0,0,0,0
0.03,-0.73,0.19,8.02,26.1,4091.75,0.0,0.0,-1.7,0.0
-0.97,-0.73,0.19,13.02,44.1,4084.75,0,0,0,0
-0.97,-0.73,0.19,31.02,40.1,4069.75,0,0,0,0
3.03,0.27,0.19,30.02,54.1,4112.75,0,0,0,0
0.03,0.27,1.19,22.02,41.1,4106.75,0,0,0,0
1.03,0.27,1.19,15.02,46.1,4120.75,0,0,0,0
-0.97,0.27,0.19,68.02,72.1,4085.75,0,0,0,0
4.03,1.27,-0.81,16.02,72.1,4086.75,0,0,0,0
14.03,2.27,-4.81,33.02,25.1,4117.75,0,0,0,0
4.03,1.27,1.19,43.02,-49.9,4158.75,0,0,0,0
-7.97,-1.73,1.19,22.02,-38.9,4051.75,0,0,0,0
-8.97,0.27,3.19,-2.98,-43.9,4104.75,0,0,0,0
-0.97,0.27,1.19,-1.98,-10.9,4105.75,0,0,0,0
-6.97,1.27,3.19,-5.98,-16.9,4091.75,0,0,0,0
-2.97,-1.73,1.19,-4.98,-36.9,4055.75,0,0,0,0
1.03,-1.73,-0.81,24.02,-54.9,4101.75,0,0,0,0
1.03,-1.73,-0.81,32.02,-33.9,4088.75,0,0,0,0
0,0,0,0,0,0,0,0,0,0
2.03,-0.73,0.19,25.02,-6.9,4077.75,0,0,0,0
4.03,-0.73,0.19,-2.98,-1.9,4076.75,0,0,0,0
0.03,-0.73,0.19,12.02,-0.9,4043.75,0,0,0,0
1.03,-1.73,0.19,16.02,4.1,4054.75,0,0,0,0
32.03,1.27,-27.81,115.02,28.1,4119.75,0,0,0,0
-7.97,-2.73,-1.81,0.02,-51.9,4071.75,0,0,0,0
-7.97,-1.73,0.19,38.02,-70.9,4045.75,0.0,0.0,-1.7,0.0
-0.97,0.27,1.19,2.02,-75.9,4075.75,0,0,0,0
3.03,0.27,-0.81,26.02,-80.9,4082.75,0,0,0,0
4.03,-0.73,0.19,42.02,-45.9,4111.75,0,0,0,0
11.03,1.27,0.19,7.02,-16.9,4129.75,0,0,0,0
-1.97,0.27,0.19,-15.98,-11.9,4055.75,0,0,0,0
18.03,2.27,0.19,3.02,-27.9,4134.75,0,0,0,0
-18.97,-2.73,2.19,12.02,-56.9,3998.75,0.0,0.0,-1.7,0.0
3.03,-0.73,-0.81,30.02,-1.9,4090.75,0,0,0,0
-0.97,-1.73,0.19,23.02,-20.9,4075.75,0,0,0,0
0.03,0.27,1.19,18.02,-51.9,4119.75,0,0,0,0
10.03,0.27,0.19,35.02,-25.9,4162.75,0,0,0,0
-2.97,1.27,0.19,8.02,-58.9,4103.75,0,0,0,0
3.03,0.27,1.19,-0.98,-58.9,4087.75,0,0,0,0
0.03,-0.73,-0.81,51.02,-74.9,4076.75,0,0,0,0
-4.97,0.27,0.19,29.02,-62.9,4076.75,0,0,0,0
0,0,0,0,0,0,0,0,0,0
-2.97,-1.73,0.19,51.02,-39.9,4058.75,0,0,0,0
-0.97,-0.73,0.19,11.02,-48.9,4069.75,0,0,0,0
3.03,-1.73,0.19,52.02,-36.9,4081.75,0,0,0,0
-1.97,0.27,0.19,21.02,-41.9,4056.75,0,0,0,0
-0.97,0.27,1.19,9.02,-55.9,4068.75,0,0,0,0
3.03,-1.73,0.19,53.02,-28.9,4083.75,0,0,0,0
2.03,0.27,0.19,-5.98,-23.9,4082.75,0.0,0.0,-1.7,0.0
1.03,-0.73,1.19,42.02,-48.9,4102.75,0,0,0,0
1.03,0.27,0.19,53.02,-32.9,4097.75,0,0,0,0
2.03,0.27,0.19,11.02,-11.9,4076.75,0,0,0,0
1.03,-1.73,0.19,31.02,-19.9,4075.75,0,0,0,0
1.03,0.27,0.19,34.02,-24.9,4066.75,0,0,0,0
-4.97,-1.73,0.19,-17.98,-37.9,4081.75,0,0,0,0
-0.97,0.27,0.19,66.02,-75.9,4088.75,0,0,0,0
0.03,0.27,0.19,27.02,-56.9,4061.75,0,0,0,0
0,0,0,0,0,0,0,0,0,0
-4.97,-0.73,0.19,-5.98,-35.9,4051.75,0,0,0,0
2.03,-0.73,0.19,30.02,-35.9,4100.75,0,0,0,0
-0.97,-0.73,0.19,47.02,-27.9,4087.75,0,0,0,0
0.03,0.27,0.19,21.02,-15.9,4114.75,0,0,0,0
-0.97,-0.73,0.19,47.02,-12.9,4093.75,0,0,0,0
-1.97,-0.73,1.19,32.02,-43.9,4087.75,0,0,0,0
1.03,-0.73,0.19,28.02,-36.9,4078.75,0.0,0.0,-1.7,0.0
1.03,0.27,0.19,24.02,-18.9,4080.75,0,0,0,0
1.03,0.27,1.19,32.02,-26.9,4063.75,0,0,0,0
-2.97,-0.73,1.19,22.02,-17.9,4070.75,0,0,0,0
0.03,-0.73,0.19,50.02,-27.9,4070.75,0,0,0,0
0.03,-0.73,0.19,22.02,-33.9,4083.75,0,0,0,0
-0.97,-0.73,0.19,51.02,-20.9,4065.75,0,0,0,0
0.03,0.27,0.19,34.02,-27.9,4071.75,0.0,0.0,-1.7,0.0
0.03,-1.73,0.19,43.02,-13.9,4086.75,0,0,0,0
-4.97,-0.73,0.19,17.02,-17.9,4070.75,0,0,0,0
-2.97,-0.73,1.19,12.02,-53.9,4070.75,0,0,0,0
-3.97,-1.73,0.19,10.02,-51.9,4056.75,0,0,0,0
1.03,-0.73,-1.81,34.02,-37.9,4095.75,0,0,0,0
4.03,-1.73,0.19,70.02,-30.9,4119.75,0,0,0,0
-5.97,0.27,3.19,27.02,-15.9,4091.75,0.0,0.0,-1.7,0.0
-1.97,-0.73,0.19,14.02,-17.9,4053.75,0,0,0,0
-1.97,-2.73,0.19,74.02,-39.9,4077.75,0,0,0,0
2.03,0.27,0.19,27.02,-9.9,4080.75,0,0,0,0
7.03,2.27,-0.81,48.02,17.1,4094.75,0,0,0,0
0.03,4.27,0.19,45.02,-35.9,4035.75,0,0,0,0
16.03,2.27,-5.81,19.02,-15.9,4094.75,0,0,0,0
-0.97,-0.73,1.19,43.02,-18.9,4082.75,0.0,0.0,-1.7,0.0
-1582.97,3979.27,-742.81,-2971.98,-1488.9,7110.75,0,0,0,0
606.03,-3.73,-547.81,-1568.98,-1282.9,3199.75,0,0,0,0
1525.03,671.27,-1387.81,-1401.98,-2343.9,5194.75,0,0,0,0
1729.03,-296.73,-166.81,-721.98,-11.9,3393.75,0,0,0,0
210.03,99.27,-46.81,-1106.98,1214.1,4731.75,0,0,0,0
-64.97,-24.73,17.19,-1028.98,990.1,4343.75,0,0,0,0
-132.97,136.27,177.19,-960.98,1033.1,4073.75,0.0,0.0,-1.7,0.0
416.03,106.27,-90.81,-1047.98,1348.1,4640.75,0,0,0,0
-21.97,95.27,126.19,-1213.98,1099.1,4644.75,0,0,0,0
-95.97,-21.73,20.19,-1206.98,940.1,4302.75,0,0,0,0
104.03,21.27,-19.81,-1163.98,1134.1,4489.75,0,0,0,0
-37.97,-27.73,15.19,-1190.98,1067.1,4467.75,0,0,0,0
-14.97,-5.73,1.19,-1178.98,1077.1,4420.75,0,0,0,0
167.03,-82.73,-262.81,-1092.98,1180.1,4429.75,0,0,0,0
-161.97,-54.73,30.19,-1172.98,1015.1,4269.75,0,0,0,0
0,0,0,0,0,0,0,0,0,0
0,0,0,0,0,0,0,0,0,0
-10.97,-2.73,2.19,-1163.98,1115.1,4385.75,0,0,0,0
57.03,10.27,-9.81,-1160.98,1225.1,4496.75,0,0,0,0
-35.97,-6.73,8.19,-1189.98,1152.1,4432.75,0,0,0,0
7.03,9.27,-1.81,-1212.98,1190.1,4498.75,0.0,0.0,-1.7,0.0
13.03,-4.73,-0.81,-1175.98,1176.1,4451.75,0,0,0,0
4.03,2.27,-0.81,-1169.98,1195.1,4476.75,0,0,0,0
-39.97,-3.73,9.19,-1185.98,1140.1,4402.75,0,0,0,0
10.03,4.27,0.19,-1200.98,1128.1,4472.75,0,0,0,0
19.03,5.27,-2.81,-1201.98,1184.1,4455.75,0,0,0,0
-0.97,2.27,1.19,-1186.98,1180.1,4471.75,0,0,0,0
-15.97,-0.73,3.19,-1211.98,1155.1,4440.75,0,0,0,0
-26.97,-2.73,7.19,-1259.98,1147.1,4417.75,0,0,0,0
13.03,5.27,-1.81,-1182.98,1178.1,4497.75,0,0,0,0
-28.97,-8.73,7.19,-1228.98,1106.1,4357.75,0,0,0,0
-6.97,-13.73,6.19,-1235.98,1095.1,4390.75,0,0,0,0
19.03,0.27,-1.81,-1160.98,1255.1,4501.75,0.0,0.0,-1.7,0.0
-9.97,7.27,0.19,-1211.98,1157.1,4463.75,0,0,0,0
6.03,-14.73,1.19,-1123.98,1166.1,4421.75,0,0,0,0
-2.97,6.27,1.19,-1180.98,1169.1,4431.75,0,0,0,0
-8.97,-13.73,4.19,-1206.98,1163.1,4385.75,0,0,0,0
3.03,-5.73,2.19,-1206.98,1220.1,4453.75,0,0,0,0
0.03,5.27,1.19,-1214.98,1203.1,4440.75,0,0,0,0
0.03,-6.73,2.19,-1197.98,1213.1,4464.75,0.0,0.0,-1.7,0.0
0.03,3.27,0.19,-1177.98,1171.1,4476.75,0,0,0,0
0.03,-0.73,1.19,-1163.98,1182.1,4466.75,0,0,0,0
0.03,-5.73,2.19,-1179.98,1192.1,4462.75,0,0,0,0
1.03,0.27,1.19,-1184.98,1182.1,4447.75,0,0,0,0
0.03,1.27,1.19,-1190.98,1202.1,4435.75,0,0,0,0
1.03,2.27,1.19,-1207.98,1200.1,4468.75,0,0,0,0
1.03,-3.73,1.19,-1187.98,1201.1,4455.75,0,0,0,0
0.03,0.27,2.19,-1211.98,1187.1,4443.75,0,0,0,0
-0.97,2.27,0.19,-1190.98,1192.1,4477.75,0,0,0,0
-0.97,-3.73,1.19,-1173.98,1197.1,4455.75,0,0,0,0
0.03,-0.73,1.19,-1191.98,1191.1,4436.75,0,0,0,0
0.03,-0.73,1.19,-1193.98,1199.1,4421.75,0,0,0,0
0.03,-0.73,2.19,-1195.98,1204.1,4459.75,0,0,0,0
0.03,-1.73,1.19,-1201.98,1194.1,4444.75,0,0,0,0
0.03,0.27,0.19,-1203.98,1198.1,4436.75,0,0,0,0
0.03,-0.73,1.19,-1184.98,1190.1,4449.75,0,0,0,0
0.03,-0.73,1.19,-1202.98,1196.1,4452.75,0,0,0,0
-0.97,-1.73,1.19,-1194.98,1208.1,4438.75,0,0,0,0
-0.97,-0.73,1.19,-1191.98,1188.1,4467.75,0,0,0,0
0.03,-0.73,1.19,-1200.98,1185.1,4439.75,0,0,0,0
0.03,3.27,1.19,-1217.98,1188.1,4437.75,0,0,0,0
0.03,-0.73,0.19,-1209.98,1199.1,4455.75,0,0,0,0
0.03,-1.73,1.19,-1195.98,1205.1,4431.75,0,0,0,0
0.03,-0.73,1.19,-1200.98,1205.1,4445.75,0.0,0.0,-1.7,0.0
0.03,0.27,1.19,-1197.98,1194.1,4442.75,0,0,0,0
0.03,0.27,1.19,-1210.98,1190.1,4457.75,0,0,0,0
-0.97,-2.73,1.19,-1205.98,1198.1,4440.75,0,0,0,0
0.03,-0.73,0.19,-1208.98,1193.1,4455.75,0,0,0,0
0.03,0.27,1.19,-1207.98,1186.1,4432.75,0,0,0,0
0.03,0.27,0.19,-1196.98,1196.1,4478.75,0,0,0,0
1.03,-1.73,1.19,-1193.98,1205.1,4436.75,0.0,0.0,-1.7,0.0
-0.97,0.27,1.19,-1219.98,1207.1,4448.75,0,0,0,0
1.03,8.27,-0.81,-1214.98,1196.1,4447.75,0,0,0,0
0.03,1.27,0.19,-1184.98,1185.1,4472.75,0,0,0,0
0.03,1.27,2.19,-1209.98,1200.1,4454.75,0,0,0,0
0.03,-0.73,1.19,-1212.98,1213.1,4457.75,0,0,0,0
0.03,1.27,2.19,-1218.98,1203.1,4476.75,0,0,0,0
0.03,-0.73,1.19,-1206.98,1189.1,4465.75,0.0,0.0,-1.7,0.0
0.03,-2.73,1.19,-1211.98,1203.1,4438.75,0,0,0,0
0.03,1.27,0.19,-1208.98,1199.1,4450.75,0,0,0,0
0.03,-1.73,1.19,-1213.98,1202.1,4463.75,0,0,0,0
0.03,0.27,1.19,-1215.98,1216.1,4453.75,0,0,0,0
0.03,-0.73,1.19,-1207.98,1183.1,4426.75,0,0,0,0
-0.97,-1.73,1.19,-1206.98,1195.1,4432.75,0,0,0,0
1.03,2.27,1.19,-1203.98,1194.1,4470.75,0.0,0.0,-1.7,0.0
0.03,-2.73,1.19,-1206.98,1210.1,4450.75,0,0,0,0
0.03,-1.73,1.19,-1216.98,1210.1,4471.75,0,0,0,0
0.03,-0.73,1.19,-1199.98,1215.1,4464.75,0,0,0,0
0.03,1.27,1.19,-1212.98,1201.1,4442.75,0,0,0,0
0.03,0.27,1.19,-1209.98,1201.1,4481.75,0,0,0,0
0.03,-3.73,1.19,-1181.98,1208.1,4416.75,0,0,0,0
0.03,0.27,1.19,-1208.98,1201.1,4461.75,0.0,0.0,-1.7,0.0
0.03,-1.73,1.19,-1218.98,1194.1,4459.75,0,0,0,0
0.03,0.27,1.19,-1224.98,1199.1,4466.75,0,0,0,0
0.03,-2.73,1.19,-1201.98,1199.1,4419.75,0,0,0,0
0.03,-0.73,1.19,-1200.98,1200.1,4446.75,0,0,0,0
0.03,-0.73,1.19,-1210.98,1199.1,4452.75,0,0,0,0
0.03,-0.73,1.19,-1219.98,1208.1,4450.75,0,0,0,0
0.03,-0.73,1.19,-1212.98,1192.1,4453.75,0.0,0.0,-1.7,0.0
0.03,-0.73,1.19,-1226.98,1199.1,4407.75,0,0,0,0
0.03,-1.73,1.19,-1215.98,1196.1,4454.75,0,0,0,0
0.03,-0.73,1.19,-1203.98,1195.1,4473.75,0,0,0,0
0.03,-1.73,1.19,-1228.98,1193.1,4473.75,0,0,0,0
0.03,-1.73,0.19,-1211.98,1198.1,4455.75,0,0,0,0
0.03,1.27,0.19,-1224.98,1199.1,4461.75,0,0,0,0
-0.97,-1.73,0.19,-1218.98,1206.1,4466.75,0,0,0,0
-0.97,-1.73,1.19,-1216.98,1198.1,4449.75,0,0,0,0
0,0,0,0,0,0,0,0,0,0
-0.97,1.27,0.19,-1218.98,1186.1,4476.75,0,0,0,0
0.03,0.27,1.19,-1207.98,1200.1,4474.75,0,0,0,0
-0.97,-1.73,2.19,-1212.98,1202.1,4464.75,0,0,0,0
0.03,-1.73,1.19,-1219.98,1206.1,4432.75,0.0,0.0,-1.7,0.0
0.03,-0.73,1.19,-1215.98,1197.1,4456.75,0,0,0,0
0.03,-1.73,1.19,-1219.98,1203.1,4442.75,0,0,0,0
0.03,-1.73,1.19,-1199.98,1192.1,4447.75,0,0,0,0
0.03,0.27,1.19,-1222.98,1192.1,4446.75,0,0,0,0
0.03,-0.73,1.19,-1208.98,1203.1,4455.75,0,0,0,0
0.03,0.27,1.19,-1221.98,1202.1,4460.75,0,0,0,0
0.03,-0.73,1.19,-1222.98,1195.1,4442.75,0.0,0.0,-1.7,0.0
0.03,-0.73,1.19,-1211.98,1188.1,4466.75,0,0,0,0
0.03,1.27,1.19,-1220.98,1203.1,4448.75,0,0,0,0
-0.97,-0.73,2.19,-1227.98,1186.1,4464.75,0,0,0,0
0.03,-0.73,1.19,-1211.98,1194.1,4435.75,0,0,0,0
0.03,-0.73,1.19,-1209.98,1190.1,4434.75,0,0,0,0
0.03,-1.73,1.19,-1210.98,1192.1,4454.75,0,0,0,0
0.03,0.27,1.19,-1203.98,1193.1,4436.75,0.0,0.0,-1.7,0.0
0.03,-0.73,1.19,-1218.98,1198.1,4464.75,0,0,0,0
0.03,-0.73,0.19,-1222.98,1189.1,4441.75,0,0,0,0
0.03,-0.73,1.19,-1205.98,1202.1,4448.75,0,0,0,0
0.03,1.27,1.19,-1224.98,1202.1,4478.75,0,0,0,0
0.03,-0.73,0.19,-1215.98,1211.1,4477.75,0,0,0,0
0.03,0.27,1.19,-1228.98,1200.1,4464.75,0,0,0,0
0.03,-0.73,1.19,-1210.98,1197.1,4470.75,0,0,0,0
0.03,0.27,0.19,-1220.98,1190.1,4474.75,0,0,0,0
0,0,0,0,0,0,0,0,0,0
0.03,-0.73,1.19,-1226.98,1206.1,4469.75,0,0,0,0
0.03,-1.73,1.19,-1208.98,1206.1,4440.75,0,0,0,0
0.03,0.27,1.19,-1227.98,1218.1,4458.75,0,0,0,0
0.03,-1.73,0.19,-1231.98,1202.1,4466.75,0.0,0.0,-1.7,0.0
0.03,-5.73,1.19,-1189.98,1215.1,4455.75,0,0,0,0
-0.97,0.27,1.19,-1210.98,1194.1,4436.75,0,0,0,0
0.03,0.27,0.19,-1216.98,1198.1,4459.75,0,0,0,0
0.03,-0.73,0.19,-1231.98,1195.1,4476.75,0,0,0,0
-0.97,-1.73,1.19,-1217.98,1190.1,4459.75,0,0,0,0
-0.97,-1.73,0.19,-1192.98,1220.1,4447.75,0,0,0,0
0.03,-1.73,0.19,-1222.98,1195.1,4460.75,0.0,0.0,-1.7,0.0
-0.97,-0.73,1.19,-1194.98,1198.1,4464.75,0,0,0,0
-0.97,-0.73,1.19,-1226.98,1187.1,4399.75,0,0,0,0
0.03,3.27,1.19,-1240.98,1208.1,4486.75,0,0,0,0
0.03,-8.73,2.19,-1234.98,1217.1,4424.75,0,0,0,0
0.03,-5.73,1.19,-1196.98,1193.1,4483.75,0,0,0,0
0.03,0.27,0.19,-1192.98,1170.1,4448.75,0,0,0,0
0.03,-1.73,1.19,-1205.98,1170.1,4460.75,0,0,0,0
0.03,-1.73,1.19,-1210.98,1210.1,4460.75,0,0,0,0
0,0,0,0,0,0,0,0,0,0
0.03,-1.73,1.19,-1216.98,1203.1,4423.75,0,0,0,0
0.03,-0.73,1.19,-1220.98,1194.1,4477.75,0,0,0,0
0.03,0.27,1.19,-1219.98,1210.1,4464.75,0,0,0,0
0.03,-0.73,1.19,-1237.98,1198.1,4461.75,0.0,0.0,-1.7,0.0
-0.97,-1.73,1.19,-1216.98,1200.1,4436.75,0,0,0,0
0.03,-0.73,1.19,-1208.98,1201.1,4466.75,0,0,0,0
1.03,0.27,0.19,-1203.98,1195.1,4442.75,0,0,0,0
0.03,0.27,0.19,-1210.98,1205.1,4434.75,0,0,0,0
0.03,-1.73,1.19,-1214.98,1197.1,4453.75,0,0,0,0
0.03,-0.73,1.19,-1216.98,1189.1,4442.75,0,0,0,0
0.03,1.27,1.19,-1227.98,1190.1,4496.75,0.0,0.0,-1.7,0.0
-0.97,0.27,1.19,-1230.98,1202.1,4459.75,0,0,0,0
0.03,-0.73,0.19,-1209.98,1196.1,4470.75,0,0,0,0
1.03,1.27,0.19,-1211.98,1205.1,4445.75,0,0,0,0
0.03,-2.73,1.19,-1210.98,1198.1,4475.75,0,0,0,0
0.03,1.27,1.19,-1215.98,1197.1,4489.75,0,0,0,0
0.03,0.27,0.19,-1220.98,1180.1,4434.75,0,0,0,0
0.03,-2.73,1.19,-1208.98,1185.1,4454.75,0,0,0,0
-0.97,2.27,1.19,-1230.98,1187.1,4440.75,0,0,0,0
0,0,0,0,0,0,0,0,0,0
-0.97,-2.73,1.19,-1212.98,1206.1,4468.75,0,0,0,0
0.03,-0.73,1.19,-1223.98,1197.1,4424.75,0,0,0,0
1.03,-2.73,1.19,-1224.98,1187.1,4424.75,0,0,0,0
0.03,-4.73,1.19,-1180.98,1182.1,4477.75,0.0,0.0,-1.7,0.0
0.03,0.27,1.19,-1229.98,1216.1,4478.75,0,0,0,0
-1.97,-4.73,2.19,-1235.98,1211.1,4436.75,0,0,0,0
0.03,2.27,1.19,-1241.98,1201.1,4460.75,0,0,0,0
0.03,-2.73,1.19,-1225.98,1207.1,4453.75,0,0,0,0
0.03,1.27,0.19,-1238.98,1195.1,4465.75,0,0,0,0
-0.97,-1.73,1.19,-1212.98,1196.1,4434.75,0,0,0,0
0.03,-2.73,1.19,-1219.98,1200.1,4450.75,0.0,0.0,-1.7,0.0
0.03,0.27,1.19,-1215.98,1199.1,4465.75,0,0,0,0
0.03,0.27,0.19,-1217.98,1194.1,4492.75,0,0,0,0
0.03,-1.73,1.19,-1227.98,1204.1,4468.75,0,0,0,0
-0.97,-1.73,0.19,-1227.98,1188.1,4445.75,0,0,0,0
0.03,-0.73,1.19,-1203.98,1216.1,4454.75,0,0,0,0
0.03,0.27,1.19,-1215.98,1192.1,4452.75,0,0,0,0
-0.97,0.27,1.19,-1205.98,1206.1,4474.75,0.0,0.0,-1.7,0.0
0.03,0.27,1.19,-1233.98,1197.1,4432.75,0,0,0,0
0.03,-0.73,1.19,-1229.98,1225.1,4470.75,0,0,0,0
0.03,1.27,0.19,-1225.98,1196.1,4473.75,0,0,0,0
0.03,-2.73,0.19,-1226.98,1182.1,4473.75,0,0,0,0
0.03,-1.73,1.19,-1210.98,1201.1,4451.75,0,0,0,0
0.03,-0.73,1.19,-1215.98,1205.1,4443.75,0,0,0,0
0.03,0.27,1.19,-1226.98,1201.1,4459.75,0.0,0.0,-1.7,0.0
-0.97,-0.73,1.19,-1232.98,1190.1,4448.75,0,0,0,0
0.03,-2.73,1.19,-1217.98,1207.1,4483.75,0,0,0,0
0.03,-1.73,1.19,-1208.98,1205.1,4449.75,0,0,0,0
0.03,0.27,1.19,-1211.98,1201.1,4447.75,0,0,0,0
0.03,-0.73,1.19,-1212.98,1190.1,4456.75,0,0,0,0
0.03,-1.73,1.19,-1216.98,1200.1,4452.75,0,0,0,0
0.03,-0.73,1.19,-1216.98,1179.1,4441.75,0.0,0.0,-1.7,0.0
-0.97,1.27,1.19,-1224.98,1195.1,4465.75,0,0,0,0
0.03,-4.73,1.19,-1210.98,1180.1,4400.75,0,0,0,0
0.03,-3.73,2.19,-1210.98,1203.1,4436.75,0,0,0,0
0.03,-1.73,1.19,-1215.98,1203.1,4453.75,0.0,0.0,-1.7,0.0
0.03,3.27,0.19,-1201.98,1190.1,4518.75,0,0,0,0
0.03,-1.73,1.19,-1207.98,1201.1,4436.75,0,0,0,0
0.03,-1.73,0.19,-1205.98,1216.1,4476.75,0,0,0,0
0.03,2.27,1.19,-1231.98,1199.1,4472.75,0,0,0,0
0.03,-0.73,0.19,-1228.98,1202.1,4456.75,0,0,0,0
0.03,-1.73,2.19,-1232.98,1202.1,4462.75,0,0,0,0
0.03,-1.73,1.19,-1228.98,1195.1,4443.75,0.0,0.0,-1.7,0.0
0.03,-0.73,1.19,-1207.98,1196.1,4474.75,0,0,0,0
0.03,0.27,1.19,-1228.98,1193.1,4453.75,0,0,0,0
0.03,-0.73,0.19,-1205.98,1205.1,4454.75,0,0,0,0
0.03,-2.73,1.19,-1225.98,1210.1,4453.75,0,0,0,0
-0.97,1.27,1.19,-1228.98,1199.1,4437.75,0,0,0,0
-0.97,1.27,1.19,-1240.98,1198.1,4465.75,0,0,0,0
0.03,-0.73,1.19,-1220.98,1191.1,4482.75,0.0,0.0,-1.7,0.0
0.03,-1.73,1.19,-1225.98,1208.1,4442.75,0,0,0,0
-0.97,-1.73,1.19,-1232.98,1204.1,4481.75,0,0,0,0
0.03,0.27,1.19,-1226.98,1202.1,4454.75,0,0,0,0
1.03,3.27,1.19,-1253.98,1145.1,4464.75,0,0,0,0
0.03,-5.73,1.19,-1164.98,1161.1,4490.75,0,0,0,0
0.03,2.27,0.19,-1182.98,1186.1,4482.75,0,0,0,0
0.03,2.27,0.19,-1232.98,1187.1,4448.75,0.0,0.0,-1.7,0.0
0.03,-1.73,1.19,-1242.98,1206.1,4468.75,0,0,0,0
-0.97,-1.73,1.19,-1256.98,1206.1,4449.75,0,0,0,0
-0.97,-1.73,1.19,-1225.98,1221.1,4439.75,0,0,0,0
1.03,5.27,0.19,-1237.98,1209.1,4519.75,0,0,0,0
0.03,2.27,1.19,-1221.98,1212.1,4396.75,0,0,0,0
1.03,-3.73,1.19,-1207.98,1205.1,4484.75,0,0,0,0
-0.97,0.27,0.19,-1228.98,1200.1,4464.75,0.0,0.0,-1.7,0.0
1.03,0.27,1.19,-1204.98,1191.1,4484.75,0,0,0,0
-0.97,-1.73,3.19,-1213.98,1204.1,4468.75,0,0,0,0
0.03,1.27,0.19,-1239.98,1199.1,4432.75,0,0,0,0
0.03,-2.73,1.19,-1221.98,1205.1,4470.75,0,0,0,0
-0.97,-1.73,2.19,-1212.98,1201.1,4449.75,0,0,0,0
0.03,1.27,0.19,-1248.98,1197.1,4489.75,0,0,0,0
0.03,-1.73,0.19,-1223.98,1206.1,4426.75,0.0,0.0,-1.7,0.0
-0.97,-1.73,0.19,-1229.98,1207.1,4423.75,0,0,0,0
0.03,0.27,0.19,-1227.98,1187.1,4448.75,0,0,0,0
0.03,-0.73,1.19,-1220.98,1212.1,4442.75,0,0,0,0
0.03,-1.73,0.19,-1213.98,1176.1,4495.75,0,0,0,0
0.03,-0.73,1.19,-1236.98,1203.1,4452.75,0,0,0,0
0.03,1.27,1.19,-1223.98,1202.1,4450.75,0,0,0,0
0.03,0.27,1.19,-1233.98,1199.1,4479.75,0.0,0.0,-1.7,0.0
0.03,-1.73,1.19,-1232.98,1195.1,4453.75,0,0,0,0
0.03,-1.73,1.19,-1225.98,1204.1,4446.75,0,0,0,0
0.03,-0.73,1.19,-1211.98,1200.1,4482.75,0,0,0,0
0.03,-0.73,1.19,-1224.98,1201.1,4452.75,0,0,0,0
0.03,-2.73,1.19,-1228.98,1197.1,4438.75,0,0,0,0
0.03,-0.73,1.19,-1219.98,1196.1,4466.75,0,0,0,0
0.03,-0.73,1.19,-1213.98,1195.1,4461.75,0.0,0.0,-1.7,0.0
0.03,-1.73,1.19,-1201.98,1182.1,4460.75,0,0,0,0
-0.97,-0.73,0.19,-1217.98,1183.1,4443.75,0,0,0,0
0.03,-1.73,1.19,-1226.98,1206.1,4460.75,0,0,0,0
1.03,0.27,0.19,-1217.98,1196.1,4453.75,0.0,0.0,-1.7,0.0
0.03,-1.73,1.19,-1223.98,1214.1,4454.75,0,0,0,0
0.03,-1.73,1.19,-1213.98,1199.1,4434.75,0,0,0,0
-0.97,-0.73,1.19,-1209.98,1208.1,4468.75,0,0,0,0
1.03,22.27,-1.81,-1286.98,1194.1,4523.75,0,0,0,0
0.03,-1.73,0.19,-1238.98,1189.1,4437.75,0,0,0,0
0.03,-2.73,0.19,-1216.98,1195.1,4476.75,0,0,0,0
0.03,1.27,0.19,-1238.98,1191.1,4436.75,0.0,0.0,-1.7,0.0
0.03,-2.73,1.19,-1211.98,1200.1,4452.75,0,0,0,0
-0.97,-0.73,1.19,-1213.98,1186.1,4494.75,0,0,0,0
0.03,0.27,1.19,-1222.98,1193.1,4429.75,0,0,0,0
-0.97,-0.73,1.19,-1240.98,1209.1,4435.75,0,0,0,0
-0.97,-5.73,2.19,-1195.98,1223.1,4467.75,0,0,0,0
0.03,5.27,0.19,-1229.98,1176.1,4484.75,0,0,0,0
0.03,-3.73,2.19,-1219.98,1224.1,4503.75,0.0,0.0,-1.7,0.0
0.03,-0.73,2.19,-1241.98,1224.1,4464.75,0,0,0,0
0.03,1.27,1.19,-1240.98,1201.1,4465.75,0,0,0,0
3.03,2.27,0.19,-1255.98,1141.1,4414.75,0,0,0,0
-0.97,-15.73,3.19,-1208.98,1144.1,4472.75,0,0,0,0
-1.97,9.27,0.19,-1174.98,1220.1,4534.75,0,0,0,0
0.03,2.27,1.19,-1255.98,1195.1,4429.75,0,0,0,0
-0.97,-13.73,3.19,-1232.98,1232.1,4458.75,0.0,0.0,-1.7,0.0
1.03,3.27,0.19,-1236.98,1203.1,4475.75,0,0,0,0
0.03,-0.73,1.19,-1244.98,1201.1,4421.75,0,0,0,0
0.03,-1.73,1.19,-1210.98,1197.1,4465.75,0,0,0,0
1.03,4.27,0.19,-1221.98,1203.1,4455.75,0,0,0,0
0.03,-4.73,1.19,-1226.98,1205.1,4475.75,0,0,0,0
-0.97,-0.73,1.19,-1211.98,1205.1,4447.75,0,0,0,0
0.03,1.27,0.19,-1235.98,1193.1,4449.75,0.0,0.0,-1.7,0.0
0.03,-2.73,1.19,-1222.98,1224.1,4473.75,0,0,0,0
-0.97,-0.73,1.19,-1229.98,1203.1,4453.75,0,0,0,0
0.03,2.27,1.19,-1235.98,1200.1,4420.75,0,0,0,0
-0.97,2.27,1.19,-1236.98,1195.1,4479.75,0,0,0,0
-1.97,1.27,1.19,-1238.98,1199.1,4488.75,0,0,0,0
0.03,-2.73,0.19,-1206.98,1213.1,4446.75,0,0,0,0
0.03,8.27,1.19,-1288.98,1222.1,4448.75,0.0,0.0,-1.7,0.0
0.03,0.27,0.19,-1237.98,1199.1,4448.75,0,0,0,0
-1.97,-6.73,3.19,-1208.98,1204.1,4433.75,0,0,0,0
-0.97,0.27,1.19,-1252.98,1156.1,4402.75,0,0,0,0
-0.97,-4.73,2.19,-1239.98,1194.1,4413.75,0,0,0,0
2.03,6.27,-0.81,-1307.98,1166.1,4431.75,0,0,0,0
0.03,-13.73,2.19,-1201.98,1235.1,4520.75,0,0,0,0
0.03,4.27,1.19,-1221.98,1204.1,4437.75,0,0,0,0
0.03,1.27,1.19,-1249.98,1199.1,4487.75,0,0,0,0
0,0,0,0,0,0,0,0,0,0
-2.97,4.27,1.19,-1249.98,1183.1,4457.75,0,0,0,0
-1.97,-0.73,1.19,-1257.98,1162.1,4468.75,0,0,0,0
0.03,-0.73,1.19,-1211.98,1167.1,4469.75,0,0,0,0
-0.97,1.27,0.19,-1248.98,1172.1,4428.75,0.0,0.0,-1.7,0.0
0.03,2.27,1.19,-1250.98,1161.1,4502.75,0,0,0,0
-0.97,-4.73,1.19,-1241.98,1202.1,4474.75,0,0,0,0
0.03,-2.73,1.19,-1271.98,1220.1,4453.75,0,0,0,0
0.03,2.27,1.19,-1259.98,1209.1,4433.75,0,0,0,0
0.03,-0.73,1.19,-1244.98,1200.1,4470.75,0,0,0,0
0.03,-3.73,1.19,-1243.98,1191.1,4460.75,0,0,0,0
0.03,0.27,1.19,-1224.98,1187.1,4463.75,0.0,0.0,-1.7,0.0
1.03,7.27,-0.81,-1248.98,1163.1,4433.75,0,0,0,0
0.03,12.27,-1.81,-1299.98,1185.1,4430.75,0,0,0,0
-0.97,-8.73,2.19,-1242.98,1221.1,4458.75,0,0,0,0
0.03,-2.73,1.19,-1246.98,1208.1,4446.75,0.0,0.0,-1.7,0.0
0.03,-2.73,1.19,-1212.98,1174.1,4483.75,0,0,0,0
0.03,-1.73,1.19,-1200.98,1181.1,4442.75,0,0,0,0
-0.97,2.27,1.19,-1255.98,1170.1,4434.75,0,0,0,0
0.03,-3.73,1.19,-1233.98,1192.1,4421.75,0,0,0,0
0.03,-1.73,1.19,-1236.98,1197.1,4458.75,0,0,0,0
0.03,2.27,1.19,-1270.98,1175.1,4468.75,0,0,0,0
0.03,0.27,1.19,-1248.98,1205.1,4459.75,0.0,0.0,-1.7,0.0
0.03,-2.73,2.19,-1252.98,1210.1,4454.75,0,0,0,0
1.03,0.27,1.19,-1265.98,1199.1,4460.75,0,0,0,0
1.03,0.27,1.19,-1254.98,1185.1,4464.75,0,0,0,0
0.03,-2.73,1.19,-1222.98,1186.1,4475.75,0,0,0,0
0.03,-0.73,1.19,-1231.98,1177.1,4469.75,0,0,0,0
0.03,-0.73,0.19,-1243.98,1181.1,4425.75,0,0,0,0
0.03,-1.73,1.19,-1232.98,1177.1,4459.75,0.0,0.0,-1.7,0.0
0.03,-1.73,1.19,-1259.98,1186.1,4433.75,0,0,0,0
0.03,-0.73,1.19,-1237.98,1208.1,4445.75,0,0,0,0
-0.97,-1.73,0.19,-1251.98,1192.1,4466.75,0,0,0,0
0.03,-1.73,1.19,-1245.98,1186.1,4442.75,0,0,0,0
0.03,0.27,1.19,-1249.98,1190.1,4486.75,0,0,0,0
0.03,-0.73,1.19,-1229.98,1183.1,4464.75,0,0,0,0
-0.97,-0.73,1.19,-1243.98,1194.1,4464.75,0.0,0.0,-1.7,0.0
0.03,0.27,0.19,-1237.98,1166.1,4443.75,0,0,0,0
0.03,-0.73,1.19,-1240.98,1185.1,4429.75,0,0,0,0
0.03,-1.73,1.19,-1228.98,1194.1,4450.75,0,0,0,0
0.03,-0.73,1.19,-1224.98,1198.1,4406.75,0,0,0,0
0.03,-0.73,1.19,-1236.98,1208.1,4454.75,0,0,0,0
0.03,-0.73,2.19,-1242.98,1201.1,4446.75,0,0,0,0
0.03,-1.73,1.19,-1247.98,1220.1,4454.75,0.0,0.0,-1.7,0.0
-0.97,-0.73,1.19,-1239.98,1201.1,4447.75,0,0,0,0
3.03,8.27,-5.81,-1264.98,1107.1,4279.75,0,0,0,0
1.03,-6.73,1.19,-1201.98,1219.1,4540.75,0,0,0,0
-0.97,1.27,2.19,-1242.98,1214.1,4499.75,0,0,0,0
0.03,-1.73,2.19,-1290.98,1234.1,4460.75,0,0,0,0
-0.97,-6.73,2.19,-1235.98,1223.1,4451.75,0,0,0,0
0.03,5.27,0.19,-1261.98,1165.1,4443.75,0.0,0.0,-1.7,0.0
1.03,-0.73,1.19,-1271.98,1188.1,4464.75,0,0,0,0
1.03,0.27,0.19,-1251.98,1192.1,4410.75,0,0,0,0
1.03,-3.73,2.19,-1263.98,1198.1,4486.75,0,0,0,0
1.03,-2.73,1.19,-1244.98,1201.1,4468.75,0,0,0,0
1.03,-1.73,1.19,-1224.98,1192.1,4476.75,0,0,0,0
0.03,-2.73,1.19,-1234.98,1200.1,4421.75,0,0,0,0
-0.97,-0.73,1.19,-1225.98,1188.1,4458.75,0.0,0.0,-1.7,0.0
0.03,-1.73,1.19,-1242.98,1191.1,4459.75,0,0,0,0
0.03,-1.73,1.19,-1224.98,1197.1,4455.75,0,0,0,0
0.03,0.27,1.19,-1211.98,1185.1,4453.75,0,0,0,0
0.03,-0.73,1.19,-1255.98,1194.1,4438.75,0,0,0,0
0.03,-1.73,0.19,-1235.98,1197.1,4418.75,0,0,0,0
0.03,0.27,1.19,-1238.98,1185.1,4443.75,0,0,0,0
0.03,-2.73,1.19,-1225.98,1213.1,4465.75,0.0,0.0,-1.7,0.0
0.03,0.27,1.19,-1228.98,1191.1,4431.75,0,0,0,0
0.03,1.27,1.19,-1245.98,1188.1,4456.75,0,0,0,0
0.03,-0.73,1.19,-1243.98,1199.1,4473.75,0,0,0,0
-0.97,0.27,1.19,-1256.98,1201.1,4436.75,0,0,0,0
0.03,-1.73,0.19,-1240.98,1189.1,4458.75,0,0,0,0
0.03,-1.73,1.19,-1229.98,1209.1,4492.75,0,0,0,0
0.03,0.27,1.19,-1223.98,1188.1,4435.75,0,0,0,0
0.03,-0.73,1.19,-1228.98,1189.1,4462.75,0,0,0,0
0,0,0,0,0,0,0,0,0,0
0,0,0,0,0,0,0,0,0,0
0.03,-0.73,1.19,-1246.98,1193.1,4455.75,0,0,0,0
0.03,-0.73,1.19,-1242.98,1197.1,4456.75,0,0,0,0
0.03,-1.73,1.19,-1244.98,1195.1,4455.75,0,0,0,0
0.03,-0.73,0.19,-1241.98,1206.1,4461.75,0.0,0.0,-1.7,0.0
0.03,-0.73,1.19,-1250.98,1210.1,4456.75,0,0,0,0
0.03,0.27,1.19,-1240.98,1193.1,4466.75,0,0,0,0
0.03,-0.73,1.19,-1232.98,1180.1,4470.75,0,0,0,0
0.03,-0.73,1.19,-1237.98,1182.1,4454.75,0,0,0,0
-1.97,2.27,1.19,-1241.98,1182.1,4452.75,0,0,0,0
0.03,-0.73,1.19,-1239.98,1186.1,4442.75,0,0,0,0
-0.97,2.27,1.19,-1265.98,1194.1,4476.75,0.0,0.0,-1.7,0.0
0.03,0.27,1.19,-1265.98,1201.1,4444.75,0,0,0,0
0.03,-2.73,0.19,-1249.98,1227.1,4456.75,0,0,0,0
2.03,24.27,-1.81,-1312.98,1149.1,4448.75,0,0,0,0
-15.97,5.27,3.19,-1266.98,1174.1,4450.75,0.0,0.0,-1.7,0.0
-0.97,-12.73,3.19,-1251.98,1220.1,4491.75,0,0,0,0
0.03,13.27,-2.81,-1256.98,1214.1,4471.75,0,0,0,0
-0.97,7.27,1.19,-1285.98,1196.1,4478.75,0,0,0,0
0.03,4.27,-0.81,-1273.98,1176.1,4454.75,0,0,0,0
0.03,-4.73,2.19,-1267.98,1190.1,4461.75,0,0,0,0
0.03,-0.73,1.19,-1272.98,1195.1,4490.75,0,0,0,0
1.03,3.27,1.19,-1302.98,1200.1,4453.75,0.0,0.0,-1.7,0.0
1.03,7.27,-0.81,-1252.98,1181.1,4562.75,0,0,0,0
-0.97,-5.73,2.19,-1249.98,1173.1,4406.75,0,0,0,0
1.03,8.27,-0.81,-1271.98,1197.1,4497.75,0,0,0,0
-0.97,-7.73,3.19,-1258.98,1201.1,4410.75,0,0,0,0
0.03,7.27,1.19,-1302.98,1214.1,4478.75,0,0,0,0
0.03,-0.73,1.19,-1278.98,1223.1,4451.75,0,0,0,0
0.03,-7.73,2.19,-1255.98,1192.1,4372.75,0.0,0.0,-1.7,0.0
2.03,10.27,-1.81,-1282.98,1173.1,4490.75,0,0,0,0
-0.97,-9.73,2.19,-1236.98,1165.1,4379.75,0,0,0,0
0.03,2.27,0.19,-1238.98,1178.1,4467.75,0,0,0,0
0.03,13.27,-0.81,-1297.98,1193.1,4496.75,0,0,0,0
-0.97,-5.73,3.19,-1267.98,1242.1,4444.75,0,0,0,0
19.03,10.27,-3.81,-1274.98,1213.1,4521.75,0,0,0,0
-36.97,8.27,7.19,-1375.98,1186.1,4443.75,0.0,0.0,-1.7,0.0
114.03,-14.73,-15.81,-1165.98,1238.1,4430.75,0,0,0,0
-78.97,-8.73,15.19,-1311.98,1077.1,4409.75,0,0,0,0
-28.97,-8.73,7.19,-1275.98,1089.1,4413.75,0,0,0,0
107.03,20.27,-19.81,-1272.98,1284.1,4611.75,0,0,0,0
-92.97,-18.73,18.19,-1308.98,1079.1,4390.75,0,0,0,0
41.03,14.27,-7.81,-1301.98,1203.1,4506.75,0,0,0,0
11.03,-9.73,0.19,-1251.98,1179.1,4412.75,0.0,0.0,-1.7,0.0
-31.97,-14.73,8.19,-1285.98,1134.1,4382.75,0,0,0,0
21.03,11.27,-2.81,-1314.98,1220.1,4496.75,0,0,0,0
4.03,-3.73,1.19,-1289.98,1172.1,4443.75,0,0,0,0
-11.97,-1.73,3.19,-1299.98,1197.1,4459.75,0.0,0.0,-1.7,0.0
7.03,3.27,-0.81,-1304.98,1233.1,4492.75,0,0,0,0
-8.97,-2.73,2.19,-1298.98,1161.1,4461.75,0,0,0,0
-8.97,1.27,2.19,-1302.98,1182.1,4448.75,0,0,0,0
-1.97,0.27,1.19,-1285.98,1153.1,4451.75,0,0,0,0
-13.97,-3.73,4.19,-1311.98,1159.1,4469.75,0,0,0,0
36.03,5.27,-5.81,-1284.98,1242.1,4506.75,0,0,0,0
-16.97,-1.73,4.19,-1295.98,1144.1,4454.75,0.0,0.0,-1.7,0.0
1.03,-0.73,1.19,-1303.98,1175.1,4512.75,0,0,0,0
17.03,-1.73,-0.81,-1281.98,1232.1,4484.75,0,0,0,0
-12.97,-2.73,4.19,-1298.98,1152.1,4441.75,0,0,0,0
1.03,3.27,0.19,-1307.98,1191.1,4450.75,0,0,0,0
6.03,4.27,-0.81,-1302.98,1206.1,4494.75,0,0,0,0
-0.97,-6.73,2.19,-1285.98,1189.1,4472.75,0,0,0,0
-3.97,1.27,1.19,-1302.98,1187.1,4459.75,0.0,0.0,-1.7,0.0
-10.97,-2.73,3.19,-1312.98,1150.1,4451.75,0,0,0,0
1.03,-1.73,1.19,-1300.98,1156.1,4452.75,0,0,0,0
-0.97,1.27,0.19,-1293.98,1193.1,4470.75,0,0,0,0
-15.97,-3.73,4.19,-1294.98,1153.1,4443.75,0,0,0,0
14.03,2.27,-0.81,-1287.98,1161.1,4500.75,0,0,0,0
3.03,-4.73,1.19,-1293.98,1173.1,4457.75,0,0,0,0
-6.97,-1.73,3.19,-1303.98,1178.1,4476.75,0.0,0.0,-1.7,0.0
0.03,-0.73,1.19,-1299.98,1182.1,4450.75,0,0,0,0
-2.97,2.27,0.19,-1314.98,1176.1,4504.75,0,0,0,0
-2.97,-3.73,2.19,-1281.98,1163.1,4469.75,0,0,0,0
6.03,1.27,0.19,-1308.98,1198.1,4494.75,0,0,0,0
3.03,-1.73,1.19,-1294.98,1178.1,4450.75,0,0,0,0
-7.97,0.27,2.19,-1305.98,1179.1,4469.75,0,0,0,0
12.03,3.27,-1.81,-1298.98,1194.1,4469.75,0.0,0.0,-1.7,0.0
-2.97,-1.73,1.19,-1298.98,1181.1,4437.75,0,0,0,0
4.03,-1.73,0.19,-1299.98,1182.1,4469.75,0,0,0,0
3.03,2.27,1.19,-1309.98,1204.1,4455.75,0,0,0,0
-1.97,-0.73,2.19,-1305.98,1174.1,4447.75,0,0,0,0
-6.97,-2.73,3.19,-1293.98,1176.1,4458.75,0,0,0,0
-1.97,4.27,1.19,-1288.98,1183.1,4456.75,0,0,0,0
-8.97,1.27,2.19,-1306.98,1148.1,4462.75,0,0,0,0
5.03,1.27,0.19,-1298.98,1181.1,4463.75,0,0,0,0
0,0,0,0,0,0,0,0,0,0
-2.97,-2.73,2.19,-1306.98,1170.1,4452.75,0,0,0,0
-2.97,-1.73,1.19,-1285.98,1160.1,4455.75,0,0,0,0
-8.97,-0.73,2.19,-1312.98,1166.1,4470.75,0,0,0,0
2.03,-0.73,1.19,-1294.98,1168.1,4446.75,0.0,0.0,-1.7,0.0
-2.97,0.27,1.19,-1317.98,1171.1,4470.75,0,0,0,0
1.03,-0.73,1.19,-1315.98,1150.1,4451.75,0,0,0,0
-1.97,0.27,1.19,-1298.98,1180.1,4493.75,0,0,0,0
10.03,-3.73,-0.81,-1303.98,1185.1,4471.75,0,0,0,0
-0.97,-1.73,1.19,-1306.98,1170.1,4458.75,0,0,0,0
-2.97,0.27,1.19,-1316.98,1163.1,4475.75,0,0,0,0
5.03,0.27,0.19,-1323.98,1178.1,4469.75,0,0,0,0
-2.97,-1.73,1.19,-1319.98,1171.1,4472.75,0,0,0,0
-8.97,-1.73,2.19,-1295.98,1162.1,4458.75,0,0,0,0
17.03,5.27,-2.81,-1297.98,1208.1,4463.75,0,0,0,0
-12.97,-3.73,4.19,-1319.98,1174.1,4450.75,0,0,0,0
-0.97,0.27,0.19,-1294.98,1169.1,4458.75,0.0,0.0,-1.7,0.0
-7.97,1.27,2.19,-1306.98,1172.1,4467.75,0,0,0,0
0.03,0.27,1.19,-1302.98,1163.1,4453.75,0,0,0,0
0.03,0.27,1.19,-1311.98,1166.1,4447.75,0,0,0,0
6.03,1.27,0.19,-1316.98,1179.1,4441.75,0,0,0,0
-30.97,-9.73,14.19,-1301.98,1144.1,4428.75,0,0,0,0
8.03,2.27,-0.81,-1325.98,1158.1,4474.75,0,0,0,0
0.03,0.27,2.19,-1300.98,1155.1,4458.75,0.0,0.0,-1.7,0.0
3.03,-1.73,0.19,-1291.98,1161.1,4444.75,0,0,0,0
0.03,0.27,1.19,-1314.98,1147.1,4478.75,0,0,0,0
0.03,0.27,1.19,-1311.98,1150.1,4470.75,0,0,0,0
-3.97,-0.73,1.19,-1314.98,1138.1,4447.75,0,0,0,0
2.03,-2.73,1.19,-1298.98,1164.1,4468.75,0,0,0,0
-7.97,-1.73,2.19,-1315.98,1145.1,4444.75,0,0,0,0
-0.97,-0.73,1.19,-1321.98,1151.1,4462.75,0.0,0.0,-1.7,0.0
0.03,-0.73,1.19,-1307.98,1151.1,4481.75,0,0,0,0
-0.97,-1.73,1.19,-1325.98,1162.1,4461.75,0,0,0,0
-2.97,-1.73,1.19,-1295.98,1159.1,4437.75,0,0,0,0
9.03,2.27,-0.81,-1298.98,1178.1,4457.75,0.0,0.0,-1.7,0.0
-14.97,-3.73,4.19,-1311.98,1146.1,4435.75,0,0,0,0
13.03,0.27,-0.81,-1317.98,1162.1,4472.75,0,0,0,0
4.03,-0.73,0.19,-1318.98,1161.1,4464.75,0,0,0,0
-6.97,0.27,2.19,-1316.98,1149.1,4457.75,0,0,0,0
-0.97,0.27,1.19,-1317.98,1150.1,4471.75,0,0,0,0
12.03,2.27,-1.81,-1311.98,1153.1,4480.75,0,0,0,0
-13.97,-0.73,3.19,-1302.98,1134.1,4471.75,0.0,0.0,-1.7,0.0
16.03,-0.73,-1.81,-1295.98,1174.1,4465.75,0,0,0,0
10.03,2.27,-0.81,-1316.98,1145.1,4460.75,0,0,0,0
2.03,-2.73,1.19,-1322.98,1134.1,4430.75,0,0,0,0
18.03,1.27,-1.81,-1321.98,1161.1,4459.75,0,0,0,0
6.03,-0.73,0.19,-1306.98,1168.1,4455.75,0,0,0,0
-7.97,-4.73,4.19,-1323.98,1100.1,4460.75,0,0,0,0
5.03,3.27,-0.81,-1321.98,1146.1,4389.75,0.0,0.0,-1.7,0.0
8.03,-0.73,-0.81,-1327.98,1181.1,4443.75,0,0,0,0
-31.97,-1.73,6.19,-1353.98,1112.1,4472.75,0,0,0,0
31.03,-0.73,-3.81,-1313.98,1203.1,4449.75,0,0,0,0
22.03,5.27,-3.81,-1296.98,1194.1,4482.75,0,0,0,0
-48.97,-8.73,9.19,-1330.98,1109.1,4393.75,0,0,0,0
-8.97,2.27,2.19,-1337.98,1094.1,4408.75,0,0,0,0
8.03,1.27,0.19,-1338.98,1120.1,4485.75,0.0,0.0,-1.7,0.0
35.03,-1.73,-3.81,-1299.98,1211.1,4450.75,0,0,0,0
-29.97,-3.73,6.19,-1333.98,1126.1,4460.75,0,0,0,0
13.03,-0.73,-1.81,-1313.98,1124.1,4413.75,0,0,0,0
-19.97,-5.73,5.19,-1318.98,1183.1,4482.75,0,0,0,0
-48.97,-11.73,10.19,-1321.98,1049.1,4434.75,0,0,0,0
50.03,6.27,-7.81,-1299.98,1168.1,4516.75,0,0,0,0
-29.97,-7.73,7.19,-1330.98,1118.1,4427.75,0,0,0,0
41.03,10.27,-7.81,-1336.98,1186.1,4513.75,0,0,0,0
-5.97,1.27,2.19,-1326.98,1175.1,4510.75,0,0,0,0
-33.97,-4.73,8.19,-1324.98,1108.1,4420.75,0,0,0,0
35.03,4.27,-4.81,-1320.98,1181.1,4492.75,0,0,0,0
-8.97,-3.73,3.19,-1326.98,1169.1,4492.75,0.0,0.0,-1.7,0.0
5.03,1.27,-0.81,-1308.98,1151.1,4445.75,0,0,0,0
-30.97,-10.73,7.19,-1314.98,1102.1,4478.75,0,0,0,0
-102.97,-21.73,20.19,-1413.98,1015.1,4316.75,0,0,0,0
174.03,32.27,-31.81,-1274.98,1226.1,4523.75,0,0,0,0
23.03,-0.73,-2.81,-1298.98,1304.1,4542.75,0,0,0,0
10.03,-12.73,1.19,-1379.98,1016.1,4357.75,0,0,0,0
43.03,25.27,-9.81,-1340.98,1295.1,4635.75,0,0,0,0
-76.97,-21.73,17.19,-1360.98,1061.1,4349.75,0,0,0,0
0,0,0,0,0,0,0,0,0,0
-63.97,-9.73,12.19,-1364.98,1066.1,4394.75,0,0,0,0
80.03,17.27,-13.81,-1331.98,1196.1,4510.75,0,0,0,0
-23.97,-15.73,6.19,-1316.98,1147.1,4432.75,0,0,0,0
0.03,9.27,-0.81,-1329.98,1214.1,4506.75,0.0,0.0,-1.7,0.0
-11.97,-4.73,3.19,-1307.98,1105.1,4419.75,0,0,0,0
38.03,3.27,-5.81,-1308.98,1181.1,4514.75,0,0,0,0
-9.97,-2.73,2.19,-1330.98,1174.1,4489.75,0,0,0,0
-0.97,1.27,1.19,-1315.98,1172.1,4463.75,0,0,0,0
-52.97,-1.73,10.19,-1354.98,1149.1,4495.75,0,0,0,0
-0.97,-0.73,1.19,-1320.98,1101.1,4439.75,0,0,0,0
46.03,5.27,-6.81,-1326.98,1212.1,4493.75,0,0,0,0
-5.97,-4.73,3.19,-1322.98,1205.1,4452.75,0,0,0,0
0,0,0,0,0,0,0,0,0,0
-27.97,1.27,5.19,-1337.98,1123.1,4496.75,0,0,0,0
-3.97,1.27,1.19,-1304.98,1151.1,4447.75,0,0,0,0
29.03,5.27,-3.81,-1323.98,1182.1,4514.75,0,0,0,0
-29.97,1.27,5.19,-1336.98,1135.1,4527.75,0.0,0.0,-1.7,0.0
6.03,-6.73,1.19,-1310.98,1164.1,4419.75,0,0,0,0
-6.97,-0.73,2.19,-1345.98,1080.1,4420.75,0,0,0,0
-4.97,-5.73,3.19,-1332.98,1107.1,4441.75,0,0,0,0
11.03,-2.73,-0.81,-1317.98,1146.1,4447.75,0,0,0,0
0.03,-0.73,1.19,-1316.98,1162.1,4484.75,0,0,0,0
-35.97,-4.73,8.19,-1317.98,1153.1,4412.75,0,0,0,0
-5.97,-3.73,3.19,-1340.98,1108.1,4443.75,0.0,0.0,-1.7,0.0
35.03,5.27,-4.81,-1302.98,1194.1,4513.75,0,0,0,0
-25.97,-7.73,6.19,-1321.98,1146.1,4433.75,0,0,0,0
7.03,-0.73,0.19,-1328.98,1116.1,4446.75,0,0,0,0
46.03,7.27,-7.81,-1329.98,1214.1,4518.75,0.0,0.0,-1.7,0.0
-0.97,-0.73,1.19,-1346.98,1157.1,4485.75,0,0,0,0
27.03,-0.73,-2.81,-1301.98,1178.1,4491.75,0,0,0,0
-6.97,5.27,1.19,-1330.98,1153.1,4516.75,0,0,0,0
-2.97,-3.73,2.19,-1315.98,1137.1,4418.75,0,0,0,0
20.03,3.27,-2.81,-1334.98,1160.1,4496.75,0,0,0,0
-18.97,-5.73,4.19,-1322.98,1155.1,4442.75,0,0,0,0
9.03,1.27,-0.81,-1334.98,1179.1,4486.75,0.0,0.0,-1.7,0.0
0.03,-2.73,1.19,-1323.98,1162.1,4454.75,0,0,0,0
-0.97,0.27,1.19,-1329.98,1155.1,4476.75,0,0,0,0
-30.97,-7.73,6.19,-1325.98,1104.1,4462.75,0,0,0,0
33.03,3.27,-4.81,-1316.98,1183.1,4464.75,0,0,0,0
4.03,-2.73,0.19,-1288.98,1184.1,4472.75,0,0,0,0
-35.97,-4.73,7.19,-1338.98,1116.1,4445.75,0,0,0,0
14.03,-0.73,-1.81,-1320.98,1158.1,4458.75,0.0,0.0,-1.7,0.0
13.03,-1.73,-0.81,-1304.98,1176.1,4494.75,0,0,0,0
-4.97,1.27,1.19,-1319.98,1174.1,4460.75,0,0,0,0
-13.97,-1.73,4.19,-1346.98,1127.1,4443.75,0,0,0,0
40.03,-1.73,-5.81,-1289.98,1127.1,4500.75,0,0,0,0
30.03,7.27,-4.81,-1317.98,1257.1,4518.75,0,0,0,0
-42.97,-7.73,8.19,-1343.98,1068.1,4378.75,0,0,0,0
13.03,-2.73,-0.81,-1309.98,1143.1,4444.75,0.0,0.0,-1.7,0.0
-42.97,-6.73,9.19,-1333.98,1135.1,4456.75,0,0,0,0
41.03,8.27,-6.81,-1326.98,1167.1,4473.75,0,0,0,0
-10.97,-5.73,4.19,-1318.98,1154.1,4434.75,0,0,0,0
-1.97,4.27,1.19,-1340.98,1175.1,4495.75,0,0,0,0
-33.97,-3.73,7.19,-1361.98,1105.1,4455.75,0,0,0,0
61.03,7.27,-9.81,-1299.98,1192.1,4524.75,0,0,0,0
6.03,-7.73,1.19,-1303.98,1235.1,4437.75,0.0,0.0,-1.7,0.0
-75.97,-10.73,14.19,-1354.98,1075.1,4412.75,0,0,0,0
49.03,12.27,-9.81,-1307.98,1200.1,4499.75,0,0,0,0
22.03,-1.73,-1.81,-1304.98,1179.1,4519.75,0,0,0,0
-57.97,-4.73,11.19,-1337.98,1134.1,4448.75,0.0,0.0,-1.7,0.0
21.03,13.27,-4.81,-1354.98,1163.1,4492.75,0,0,0,0
9.03,-2.73,0.19,-1311.98,1167.1,4488.75,0,0,0,0
-57.97,-5.73,11.19,-1357.98,1130.1,4437.75,0,0,0,0
40.03,2.27,-9.81,-1331.98,1146.1,4415.75,0,0,0,0
15.03,-3.73,-0.81,-1321.98,1201.1,4476.75,0,0,0,0
-33.97,-1.73,6.19,-1347.98,1129.1,4486.75,0,0,0,0
-6.97,-2.73,3.19,-1343.98,1122.1,4443.75,0.0,0.0,-1.7,0.0
-0.97,2.27,1.19,-1323.98,1156.1,4449.75,0,0,0,0
-63.97,-12.73,13.19,-1366.98,1110.1,4415.75,0,0,0,0
52.03,8.27,-8.81,-1312.98,1181.1,4469.75,0,0,0,0
2.03,0.27,1.19,-1322.98,1197.1,4519.75,0,0,0,0
-40.97,-4.73,8.19,-1346.98,1113.1,4410.75,0,0,0,0
30.03,8.27,-4.81,-1337.98,1161.1,4494.75,0,0,0,0
-8.97,-1.73,2.19,-1347.98,1190.1,4507.75,0.0,0.0,-1.7,0.0
29.03,6.27,-4.81,-1313.98,1188.1,4510.75,0,0,0,0
-18.97,-4.73,5.19,-1298.98,1153.1,4476.75,0,0,0,0
-32.97,0.27,5.19,-1340.98,1122.1,4445.75,0,0,0,0
34.03,5.27,-4.81,-1320.98,1157.1,4504.75,0,0,0,0
-2.97,-5.73,3.19,-1320.98,1149.1,4485.75,0,0,0,0
12.03,4.27,-0.81,-1351.98,1143.1,4457.75,0,0,0,0
41.03,-2.73,-4.81,-1315.98,1195.1,4444.75,0.0,0.0,-1.7,0.0
-43.97,-11.73,9.19,-1339.98,1151.1,4448.75,0,0,0,0
-5.97,2.27,2.19,-1329.98,1125.1,4465.75,0,0,0,0
9.03,-5.73,0.19,-1309.98,1167.1,4488.75,0,0,0,0
-3.97,0.27,1.19,-1294.98,1185.1,4489.75,0,0,0,0
-18.97,-2.73,4.19,-1331.98,1114.1,4449.75,0,0,0,0
7.03,-2.73,0.19,-1315.98,1159.1,4463.75,0,0,0,0
5.03,0.27,0.19,-1330.98,1193.1,4454.75,0,0,0,0
-0.97,1.27,1.19,-1337.98,1162.1,4468.75,0,0,0,0
-8.97,0.27,2.19,-1342.98,1142.1,4460.75,0,0,0,0
17.03,1.27,-1.81,-1312.98,1155.1,4462.75,0,0,0,0
-4.97,-6.73,2.19,-1302.98,1165.1,4432.75,0,0,0,0
-8.97,-0.73,2.19,-1329.98,1167.1,4439.75,0.0,0.0,-1.7,0.0
-10.97,0.27,2.19,-1325.98,1162.1,4473.75,0,0,0,0
1.03,-0.73,0.19,-1329.98,1153.1,4473.75,0,0,0,0
-1.97,0.27,1.19,-1319.98,1150.1,4470.75,0,0,0,0
6.03,0.27,0.19,-1321.98,1152.1,4472.75,0,0,0,0
-6.97,-0.73,2.19,-1318.98,1151.1,4461.75,0,0,0,0
-1.97,-0.73,2.19,-1324.98,1144.1,4506.75,0,0,0,0
2.03,-2.73,1.19,-1325.98,1165.1,4486.75,0.0,0.0,-1.7,0.0
3.03,1.27,0.19,-1336.98,1159.1,4469.75,0,0,0,0
2.03,-1.73,1.19,-1307.98,1161.1,4455.75,0,0,0,0
-6.97,2.27,2.19,-1326.98,1154.1,4494.75,0,0,0,0
-1.97,-0.73,1.19,-1337.98,1149.1,4475.75,0,0,0,0
-0.97,0.27,1.19,-1342.98,1151.1,4505.75,0,0,0,0
-11.97,-1.73,3.19,-1331.98,1150.1,4448.75,0,0,0,0
4.03,2.27,0.19,-1327.98,1149.1,4477.75,0.0,0.0,-1.7,0.0
-7.97,-3.73,3.19,-1331.98,1150.1,4444.75,0,0,0,0
2.03,3.27,0.19,-1315.98,1186.1,4451.75,0,0,0,0
-12.97,-3.73,3.19,-1326.98,1131.1,4451.75,0,0,0,0
8.03,1.27,0.19,-1316.98,1159.1,4473.75,0.0,0.0,-1.7,0.0
1.03,-1.73,1.19,-1330.98,1178.1,4477.75,0,0,0,0
5.03,2.27,-0.81,-1328.98,1160.1,4466.75,0,0,0,0
-14.97,-2.73,3.19,-1332.98,1153.1,4471.75,0,0,0,0
12.03,1.27,-1.81,-1328.98,1171.1,4482.75,0,0,0,0
-7.97,-3.73,4.19,-1331.98,1157.1,4470.75,0,0,0,0
11.03,2.27,-0.81,-1304.98,1179.1,4483.75,0,0,0,0
-13.97,-0.73,3.19,-1331.98,1156.1,4485.75,0.0,0.0,-1.7,0.0
12.03,0.27,-0.81,-1314.98,1172.1,4467.75,0,0,0,0
-2.97,-1.73,1.19,-1323.98,1151.1,4470.75,0,0,0,0
-0.97,0.27,1.19,-1305.98,1169.1,4440.75,0,0,0,0
-0.97,-0.73,1.19,-1330.98,1145.1,4458.75,0,0,0,0
0.03,-0.73,1.19,-1318.98,1155.1,4476.75,0,0,0,0
-2.97,-0.73,1.19,-1329.98,1151.1,4450.75,0,0,0,0
9.03,-0.73,1.19,-1315.98,1166.1,4469.75,0.0,0.0,-1.7,0.0
0.03,-0.73,1.19,-1330.98,1162.1,4446.75,0,0,0,0
1.03,0.27,1.19,-1328.98,1159.1,4448.75,0,0,0,0
2.03,-0.73,1.19,-1322.98,1166.1,4451.75,0,0,0,0
3.03,-0.73,1.19,-1331.98,1152.1,4468.75,0,0,0,0
-3.97,0.27,1.19,-1322.98,1171.1,4451.75,0,0,0,0
-3.97,-0.73,1.19,-1333.98,1144.1,4472.75,0,0,0,0
5.03,-0.73,0.19,-1325.98,1164.1,4470.75,0.0,0.0,-1.7,0.0
7.03,1.27,0.19,-1313.98,1165.1,4460.75,0,0,0,0
-5.97,0.27,2.19,-1332.98,1168.1,4461.75,0,0,0,0
1.03,-0.73,1.19,-1332.98,1155.1,4461.75,0,0,0,0
5.03,-0.73,0.19,-1324.98,1185.1,4475.75,0,0,0,0
-1.97,-1.73,1.19,-1326.98,1162.1,4459.75,0,0,0,0
-5.97,-0.73,2.19,-1326.98,1137.1,4507.75,0,0,0,0
-9.97,-3.73,4.19,-1344.98,1144.1,4434.75,0.0,0.0,-1.7,0.0
6.03,0.27,-0.81,-1320.98,1159.1,4456.75,0,0,0,0
1.03,0.27,0.19,-1317.98,1171.1,4469.75,0,0,0,0
-26.97,-2.73,5.19,-1328.98,1128.1,4443.75,0,0,0,0
19.03,2.27,-2.81,-1307.98,1192.1,4485.75,0.0,0.0,-1.7,0.0
2.03,-0.73,1.19,-1323.98,1164.1,4483.75,0,0,0,0
7.03,1.27,-0.81,-1319.98,1175.1,4455.75,0,0,0,0
-22.97,0.27,4.19,-1316.98,1152.1,4493.75,0,0,0,0
22.03,2.27,-2.81,-1337.98,1183.1,4468.75,0,0,0,0
-1.97,1.27,1.19,-1335.98,1162.1,4508.75,0,0,0,0
-10.97,0.27,2.19,-1332.98,1156.1,4463.75,0,0,0,0
-2.97,-2.73,2.19,-1311.98,1152.1,4425.75,0.0,0.0,-1.7,0.0
-14.97,-2.73,4.19,-1315.98,1151.1,4444.75,0,0,0,0
6.03,2.27,0.19,-1319.98,1155.1,4490.75,0,0,0,0
-22.97,-4.73,5.19,-1326.98,1143.1,4460.75,0,0,0,0
5.03,-2.73,0.19,-1320.98,1152.1,4467.75,0,0,0,0
14.03,1.27,-1.81,-1318.98,1178.1,4543.75,0,0,0,0
0.03,-1.73,1.19,-1320.98,1169.1,4463.75,0,0,0,0
6.03,3.27,-0.81,-1331.98,1156.1,4463.75,0.0,0.0,-1.7,0.0
0.03,-1.73,1.19,-1343.98,1141.1,4428.75,0,0,0,0
11.03,0.27,-0.81,-1327.98,1181.1,4464.75,0,0,0,0
1.03,0.27,1.19,-1321.98,1162.1,4472.75,0,0,0,0
-18.97,-0.73,4.19,-1336.98,1150.1,4486.75,0,0,0,0
-2.97,-0.73,1.19,-1343.98,1159.1,4485.75,0,0,0,0
0.03,-2.73,2.19,-1320.98,1172.1,4462.75,0,0,0,0
9.03,1.27,0.19,-1320.98,1178.1,4465.75,0.0,0.0,-1.7,0.0
2.03,0.27,1.19,-1340.98,1156.1,4465.75,0,0,0,0
0.03,-1.73,1.19,-1330.98,1178.1,4442.75,0,0,0,0
5.03,-1.73,0.19,-1327.98,1180.1,4461.75,0,0,0,0
-11.97,-0.73,2.19,-1340.98,1183.1,4477.75,0,0,0,0
-51.97,-19.73,12.19,-1365.98,1076.1,4333.75,0,0,0,0
72.03,12.27,-11.81,-1315.98,1055.1,4571.75,0,0,0,0
-64.97,-10.73,13.19,-1343.98,1118.1,4420.75,0.0,0.0,-1.7,0.0
-0.97,-2.73,1.19,-1329.98,1122.1,4466.75,0,0,0,0
-27.97,-6.73,6.19,-1332.98,1137.1,4491.75,0,0,0,0
26.03,5.27,-3.81,-1311.98,1202.1,4503.75,0,0,0,0
-20.97,-7.73,5.19,-1318.98,1158.1,4439.75,0,0,0,0
8.03,5.27,-0.81,-1330.98,1188.1,4485.75,0,0,0,0
0.03,-1.73,1.19,-1325.98,1140.1,4459.75,0,0,0,0
0.03,0.27,1.19,-1338.98,1178.1,4453.75,0,0,0,0
3.03,0.27,0.19,-1330.98,1170.1,4469.75,0,0,0,0
0,0,0,0,0,0,0,0,0,0
-3.97,-3.73,2.19,-1326.98,1152.1,4444.75,0,0,0,0
4.03,1.27,1.19,-1341.98,1212.1,4461.75,0,0,0,0
-9.97,-2.73,3.19,-1324.98,1147.1,4439.75,0,0,0,0
-0.97,-1.73,1.19,-1327.98,1162.1,4476.75,0,0,0,0
4.03,0.27,0.19,-1325.98,1192.1,4461.75,0,0,0,0
-1.97,-1.73,2.19,-1336.98,1148.1,4424.75,0,0,0,0
6.03,0.27,0.19,-1341.98,1188.1,4467.75,0,0,0,0
4.03,-1.73,0.19,-1306.98,1183.1,4472.75,0.0,0.0,-1.7,0.0
-25.97,-2.73,5.19,-1319.98,1128.1,4445.75,0,0,0,0
3.03,-2.73,1.19,-1338.98,1146.1,4453.75,0,0,0,0
43.03,5.27,-5.81,-1324.98,1191.1,4497.75,0,0,0,0
4.03,-1.73,1.19,-1339.98,1190.1,4444.75,0,0,0,0
13.03,2.27,-0.81,-1331.98,1199.1,4491.75,0,0,0,0
6.03,-0.73,1.19,-1336.98,1201.1,4473.75,0,0,0,0
-1.97,-1.73,2.19,-1327.98,1148.1,4475.75,0.0,0.0,-1.7,0.0
12.03,1.27,-1.81,-1316.98,1186.1,4482.75,0,0,0,0
-13.97,-1.73,3.19,-1330.98,1176.1,4466.75,0,0,0,0
-27.97,-4.73,6.19,-1346.98,1119.1,4417.75,0,0,0,0
39.03,5.27,-5.81,-1305.98,1195.1,4502.75,0,0,0,0
-16.97,-5.73,4.19,-1321.98,1175.1,4451.75,0,0,0,0
5.03,1.27,0.19,-1338.98,1153.1,4483.75,0,0,0,0
5.03,0.27,0.19,-1327.98,1190.1,4486.75,0.0,0.0,-1.7,0.0
6.03,-0.73,1.19,-1349.98,1162.1,4472.75,0,0,0,0
0.03,-0.73,1.19,-1321.98,1169.1,4480.75,0,0,0,0
-10.97,-1.73,3.19,-1342.98,1143.1,4442.75,0,0,0,0
12.03,-1.73,-0.81,-1332.98,1151.1,4489.75,0,0,0,0
10.03,2.27,-1.81,-1310.98,1207.1,4515.75,0,0,0,0
-6.97,-1.73,3.19,-1326.98,1185.1,4479.75,0,0,0,0
14.03,2.27,-1.81,-1327.98,1161.1,4469.75,0.0,0.0,-1.7,0.0
-0.97,-0.73,1.19,-1317.98,1167.1,4486.75,0,0,0,0
-6.97,-2.73,3.19,-1335.98,1165.1,4445.75,0,0,0,0
-10.97,-1.73,4.19,-1318.98,1153.1,4469.75,0,0,0,0
56.03,10.27,-8.81,-1319.98,1197.1,4476.75,0,0,0,0
-11.97,0.27,3.19,-1337.98,1200.1,4476.75,0,0,0,0
-32.97,-8.73,7.19,-1369.98,1107.1,4405.75,0,0,0,0
45.03,7.27,-6.81,-1315.98,1206.1,4477.75,0,0,0,0
-10.97,-3.73,3.19,-1338.98,1186.1,4491.75,0,0,0,0
0,0,0,0,0,0,0,0,0,0
-15.97,-1.73,4.19,-1356.98,1153.1,4499.75,0,0,0,0
10.03,-0.73,-0.81,-1331.98,1165.1,4473.75,0,0,0,0
8.03,-1.73,0.19,-1331.98,1182.1,4478.75,0,0,0,0
0.03,2.27,1.19,-1331.98,1190.1,4489.75,0.0,0.0,-1.7,0.0
11.03,-0.73,-0.81,-1321.98,1175.1,4474.75,0,0,0,0
-0.97,-2.73,1.19,-1336.98,1186.1,4458.75,0,0,0,0
-1.97,2.27,1.19,-1344.98,1179.1,4491.75,0,0,0,0
-8.97,-2.73,2.19,-1329.98,1148.1,4449.75,0,0,0,0
-1.97,-1.73,3.19,-1333.98,1153.1,4466.75,0,0,0,0
4.03,1.27,0.19,-1342.98,1191.1,4515.75,0,0,0,0
-8.97,-1.73,2.19,-1354.98,1158.1,4438.75,0.0,0.0,-1.7,0.0
11.03,3.27,-0.81,-1331.98,1187.1,4507.75,0,0,0,0
-9.97,-3.73,3.19,-1348.98,1152.1,4470.75,0,0,0,0
0.03,-1.73,1.19,-1339.98,1157.1,4469.75,0,0,0,0
-10.97,-2.73,3.19,-1336.98,1146.1,4464.75,0,0,0,0
15.03,3.27,-1.81,-1333.98,1186.1,4487.75,0,0,0,0
-25.97,-8.73,7.19,-1332.98,1123.1,4448.75,0,0,0,0
25.03,5.27,-3.81,-1342.98,1196.1,4508.75,0,0,0,0
-7.97,-2.73,3.19,-1336.98,1180.1,4491.75,0,0,0,0
0,0,0,0,0,0,0,0,0,0
-8.97,-2.73,3.19,-1344.98,1153.1,4480.75,0,0,0,0
10.03,0.27,-0.81,-1335.98,1168.1,4468.75,0,0,0,0
-8.97,-1.73,2.19,-1339.98,1168.1,4446.75,0,0,0,0
-3.97,-0.73,2.19,-1343.98,1182.1,4462.75,0.0,0.0,-1.7,0.0
2.03,-0.73,1.19,-1310.98,1158.1,4456.75,0,0,0,0
-7.97,-2.73,3.19,-1341.98,1149.1,4462.75,0,0,0,0
3.03,0.27,0.19,-1330.98,1152.1,4447.75,0,0,0,0
14.03,3.27,-1.81,-1320.98,1186.1,4491.75,0,0,0,0
-1.97,-2.73,2.19,-1339.98,1143.1,4455.75,0,0,0,0
11.03,1.27,-0.81,-1342.98,1190.1,4470.75,0,0,0,0
-3.97,-0.73,2.19,-1344.98,1147.1,4467.75,0.0,0.0,-1.7,0.0
1.03,0.27,1.19,-1346.98,1160.1,4472.75,0,0,0,0
8.03,1.27,-0.81,-1323.98,1166.1,4494.75,0,0,0,0
-27.97,-8.73,7.19,-1357.98,1147.1,4477.75,0,0,0,0
-4.97,-1.73,2.19,-1350.98,1144.1,4416.75,0,0,0,0
42.03,7.27,-6.81,-1331.98,1226.1,4482.75,0,0,0,0
-39.97,-6.73,8.19,-1360.98,1153.1,4483.75,0,0,0,0
15.03,-0.73,-1.81,-1327.98,1158.1,4446.75,0,0,0,0
-1.97,2.27,2.19,-1348.98,1190.1,4497.75,0,0,0,0
-97.97,-18.73,18.19,-1122.98,935.1,4278.75,0,0,0,0
178.03,-21.73,-24.81,-1210.98,1522.1,4158.75,0,0,0,0
-123.97,-24.73,32.19,-1535.98,1030.1,4534.75,0,0,0,0
187.03,35.27,-34.81,-1354.98,1374.1,4366.75,0.0,0.0,-1.7,0.0
-84.97,-7.73,15.19,-1377.98,1234.1,4408.75,0,0,0,0
-94.97,-28.73,20.19,-1315.98,966.1,4330.75,0,0,0,0
95.03,25.27,-19.81,-1263.98,1287.1,4576.75,0,0,0,0
-183.97,-38.73,37.19,-1340.98,1016.1,4379.75,0.0,0.0,-1.7,0.0
116.03,27.27,-21.81,-1337.98,1249.1,4560.75,0,0,0,0
20.03,3.27,-2.81,-1360.98,1260.1,4538.75,0,0,0,0
-36.97,-9.73,8.19,-1401.98,1125.1,4426.75,0,0,0,0
97.03,19.27,-17.81,-1352.98,1269.1,4497.75,0,0,0,0
-25.97,-7.73,6.19,-1359.98,1223.1,4504.75,0,0,0,0
-22.97,-3.73,6.19,-1376.98,1156.1,4454.75,0,0,0,0
22.03,3.27,-3.81,-1354.98,1167.1,4504.75,0.0,0.0,-1.7,0.0
-42.97,-9.73,9.19,-1342.98,1140.1,4446.75,0,0,0,0
-1.97,-2.73,2.19,-1355.98,1125.1,4430.75,0,0,0,0
26.03,5.27,-3.81,-1324.98,1197.1,4485.75,0,0,0,0
-13.97,-2.73,3.19,-1352.98,1204.1,4472.75,0,0,0,0
6.03,1.27,0.19,-1360.98,1184.1,4456.75,0,0,0,0
11.03,0.27,-0.81,-1361.98,1208.1,4470.75,0,0,0,0
-18.97,-4.73,4.19,-1370.98,1169.1,4434.75,0.0,0.0,-1.7,0.0
24.03,4.27,-2.81,-1340.98,1178.1,4498.75,0,0,0,0
-10.97,-2.73,3.19,-1338.98,1198.1,4501.75,0,0,0,0
-40.97,-9.73,8.19,-1354.98,1114.1,4433.75,0,0,0,0
35.03,9.27,-6.81,-1335.98,1186.1,4499.75,0,0,0,0
-40.97,-10.73,9.19,-1365.98,1150.1,4474.75,0,0,0,0
26.03,6.27,-4.81,-1340.98,1173.1,4455.75,0,0,0,0
24.03,2.27,-2.81,-1327.98,1214.1,4503.75,0.0,0.0,-1.7,0.0
-50.97,-9.73,10.19,-1382.98,1131.1,4408.75,0,0,0,0
40.03,6.27,-5.81,-1324.98,1138.1,4473.75,0,0,0,0
-37.97,-8.73,8.19,-1358.98,1206.1,4457.75,0,0,0,0
-14.97,-5.73,4.19,-1352.98,1094.1,4356.75,0,0,0,0
89.03,17.27,-15.81,-1293.98,1295.1,4567.75,0,0,0,0
-102.97,-19.73,20.19,-1358.98,1138.1,4422.75,0,0,0,0
-15.97,-6.73,5.19,-1368.98,1072.1,4419.75,0,0,0,0
57.03,14.27,-9.81,-1332.98,1253.1,4568.75,0,0,0,0
0,0,0,0,0,0,0,0,0,0
0,0,0,0,0,0,0,0,0,0
-68.97,-16.73,15.19,-1118.98,1102.1,4412.75,0,0,0,0
11.03,2.27,-1.81,-1364.98,1130.1,4410.75,0,0,0,0
55.03,8.27,-9.81,-1326.98,1236.1,4532.75,0,0,0,0
-48.97,-10.73,10.19,-1355.98,1160.1,4411.75,0.0,0.0,-1.7,0.0
24.03,6.27,-3.81,-1346.98,1220.1,4485.75,0,0,0,0
-29.97,-10.73,8.19,-1344.98,1131.1,4471.75,0,0,0,0
-20.97,-3.73,5.19,-1348.98,1169.1,4473.75,0,0,0,0
0.03,1.27,0.19,-1346.98,1162.1,4478.75,0.0,0.0,-1.7,0.0
5.03,2.27,0.19,-1338.98,1215.1,4514.75,0,0,0,0
-49.97,-15.73,12.19,-1382.98,1133.1,4436.75,0,0,0,0
27.03,7.27,-4.81,-1361.98,1209.1,4524.75,0,0,0,0
0.03,-2.73,1.19,-1315.98,1185.1,4531.75,0,0,0,0
91.03,-27.73,-9.81,-1131.98,1169.1,4507.75,0,0,0,0
-113.97,-23.73,21.19,-1305.98,1167.1,4432.75,0,0,0,0
-44.97,-3.73,9.19,-1393.98,1040.1,4403.75,0.0,0.0,-1.7,0.0
172.03,32.27,-31.81,-1339.98,1425.1,4744.75,0,0,0,0
-111.97,-18.73,21.19,-1374.98,1170.1,4420.75,0,0,0,0
47.03,15.27,-8.81,-1383.98,1189.1,4501.75,0,0,0,0
18.03,-7.73,-0.81,-1297.98,1196.1,4437.75,0,0,0,0
7.03,7.27,-1.81,-1336.98,1275.1,4571.75,0,0,0,0
-53.97,-14.73,12.19,-1341.98,1080.1,4369.75,0,0,0,0
-20.97,-9.73,7.19,-1319.98,1175.1,4471.75,0.0,0.0,-1.7,0.0
-5.97,4.27,2.19,-1369.98,1225.1,4514.75,0,0,0,0
-20.97,-7.73,5.19,-1348.98,1144.1,4395.75,0,0,0,0
15.03,2.27,-1.81,-1337.98,1219.1,4504.75,0,0,0,0
-7.97,1.27,2.19,-1356.98,1216.1,4445.75,0,0,0,0
-26.97,-15.73,7.19,-1333.98,1070.1,4324.75,0,0,0,0
58.03,10.27,-10.81,-1303.98,1315.1,4556.75,0,0,0,0
-17.97,1.27,3.19,-1346.98,1232.1,4532.75,0.0,0.0,-1.7,0.0
19.03,-0.73,-2.81,-1303.98,1065.1,4425.75,0,0,0,0
79.03,21.27,-15.81,-1301.98,1342.1,4598.75,0,0,0,0
-45.97,-6.73,10.19,-1312.98,1124.1,4436.75,0,0,0,0
-45.97,-12.73,10.19,-1373.98,1089.1,4370.75,0,0,0,0
110.03,23.27,-19.81,-1337.98,1281.1,4587.75,0,0,0,0
-32.97,-15.73,9.19,-1334.98,1156.1,4434.75,0,0,0,0
-79.97,-13.73,16.19,-1419.98,1134.1,4414.75,0,0,0,0
117.03,19.27,-20.81,-1306.98,1184.1,4488.75,0,0,0,0
0,0,0,0,0,0,0,0,0,0
0,0,0,0,0,0,0,0,0,0
75.03,18.27,-14.81,-1290.98,1346.1,4560.75,0,0,0,0
-146.97,-36.73,30.19,-1378.98,1035.1,4340.75,0,0,0,0
65.03,15.27,-11.81,-1365.98,1181.1,4499.75,0,0,0,0
9.03,-2.73,-0.81,-1328.98,1235.1,4533.75,0,0,0,0
-36.97,-7.73,9.19,-1388.98,1149.1,4466.75,0,0,0,0
43.03,5.27,-7.81,-1345.98,1185.1,4441.75,0,0,0,0
-0.97,1.27,1.19,-1353.98,1244.1,4523.75,0,0,0,0
5.03,0.27,0.19,-1335.98,1202.1,4437.75,0,0,0,0
66.03,14.27,-11.81,-1318.98,1278.1,4519.75,0,0,0,0
-74.97,-18.73,17.19,-1367.98,1178.1,4478.75,0,0,0,0
2.03,-5.73,2.19,-1332.98,1118.1,4449.75,0,0,0,0
67.03,14.27,-11.81,-1302.98,1278.1,4549.75,0,0,0,0
-66.97,-16.73,14.19,-1373.98,1167.1,4434.75,0,0,0,0
29.03,10.27,-4.81,-1351.98,1203.1,4446.75,0,0,0,0
-11.97,-3.73,3.19,-1351.98,1205.1,4456.75,0,0,0,0
26.03,4.27,-3.81,-1345.98,1210.1,4499.75,0.0,0.0,-1.7,0.0
-33.97,-9.73,8.19,-1347.98,1162.1,4441.75,0,0,0,0
13.03,6.27,-1.81,-1379.98,1165.1,4457.75,0,0,0,0
25.03,1.27,-2.81,-1313.98,1197.1,4479.75,0,0,0,0
-27.97,-3.73,7.19,-1354.98,1200.1,4509.75,0,0,0,0
81.03,16.27,-13.81,-1331.98,1230.1,4494.75,0,0,0,0
-33.97,-10.73,7.19,-1363.98,1208.1,4491.75,0,0,0,0
-7.97,-2.73,2.19,-1376.98,1138.1,4408.75,0.0,0.0,-1.7,0.0
32.03,6.27,-4.81,-1335.98,1237.1,4500.75,0,0,0,0
-38.97,-11.73,9.19,-1356.98,1173.1,4441.75,0,0,0,0
20.03,1.27,-1.81,-1342.98,1196.1,4497.75,0,0,0,0
1.03,1.27,0.19,-1325.98,1210.1,4492.75,0,0,0,0
-8.97,-2.73,2.19,-1324.98,1195.1,4502.75,0,0,0,0
-3.97,-0.73,1.19,-1355.98,1179.1,4477.75,0,0,0,0
21.03,5.27,-2.81,-1381.98,1200.1,4430.75,0.0,0.0,-1.7,0.0
3.03,-0.73,-0.81,-1343.98,1233.1,4490.75,0,0,0,0
-46.97,-14.73,11.19,-1346.98,1111.1,4440.75,0,0,0,0
38.03,12.27,-7.81,-1320.98,1230.1,4472.75,0,0,0,0
-45.97,-13.73,10.19,-1318.98,1116.1,4432.75,0,0,0,0
13.03,4.27,-1.81,-1335.98,1186.1,4472.75,0,0,0,0
7.03,0.27,0.19,-1342.98,1155.1,4445.75,0,0,0,0
-17.97,-5.73,5.19,-1339.98,1185.1,4435.75,0,0,0,0
24.03,6.27,-2.81,-1351.98,1199.1,4496.75,0,0,0,0
0,0,0,0,0,0,0,0,0,0
-4.97,-1.73,2.19,-1342.98,1184.1,4441.75,0,0,0,0
-25.97,-6.73,6.19,-1357.98,1144.1,4411.75,0,0,0,0
40.03,7.27,-6.81,-1331.98,1211.1,4494.75,0,0,0,0
-8.97,-1.73,2.19,-1341.98,1221.1,4454.75,0.0,0.0,-1.7,0.0
-3.97,-1.73,2.19,-1366.98,1185.1,4477.75,0,0,0,0
21.03,5.27,-2.81,-1327.98,1230.1,4494.75,0,0,0,0
-0.97,-0.73,2.19,-1345.98,1216.1,4493.75,0,0,0,0
-49.97,-9.73,10.19,-1366.98,1154.1,4451.75,0,0,0,0
49.03,13.27,-8.81,-1322.98,1202.1,4476.75,0,0,0,0
-81.97,-17.73,17.19,-1366.98,1154.1,4487.75,0,0,0,0
-11.97,-0.73,2.19,-1338.98,1157.1,4455.75,0,0,0,0
44.03,7.27,-6.81,-1310.98,1221.1,4516.75,0,0,0,0
0,0,0,0,0,0,0,0,0,0
-37.97,-9.73,9.19,-1354.98,1165.1,4478.75,0,0,0,0
12.03,5.27,-1.81,-1362.98,1179.1,4486.75,0,0,0,0
4.03,-2.73,1.19,-1326.98,1153.1,4472.75,0,0,0,0
2.03,1.27,1.19,-1352.98,1213.1,4505.75,0.0,0.0,-1.7,0.0
41.03,10.27,-6.81,-1336.98,1236.1,4488.75,0,0,0,0
-17.97,-4.73,5.19,-1346.98,1187.1,4466.75,0,0,0,0
-6.97,-2.73,2.19,-1362.98,1180.1,4473.75,0,0,0,0
5.03,0.27,0.19,-1342.98,1188.1,4456.75,0.0,0.0,-1.7,0.0
-7.97,-3.73,3.19,-1322.98,1173.1,4428.75,0,0,0,0
-16.97,-0.73,4.19,-1364.98,1203.1,4507.75,0,0,0,0
7.03,0.27,0.19,-1365.98,1145.1,4408.75,0,0,0,0
5.03,-2.73,0.19,-1339.98,1215.1,4451.75,0,0,0,0
-11.97,0.27,2.19,-1388.98,1138.1,4428.75,0,0,0,0
26.03,1.27,-3.81,-1328.98,1180.1,4454.75,0,0,0,0
31.03,6.27,-5.81,-1371.98,1265.1,4530.75,0.0,0.0,-1.7,0.0
-8.97,-5.73,2.19,-1349.98,1217.1,4488.75,0,0,0,0
3.03,1.27,0.19,-1330.98,1183.1,4483.75,0,0,0,0
-2.97,-2.73,1.19,-1292.98,1187.1,4478.75,0,0,0,0
-26.97,-4.73,6.19,-1352.98,1187.1,4484.75,0,0,0,0
-8.97,-4.73,3.19,-1350.98,1139.1,4480.75,0,0,0,0
5.03,0.27,0.19,-1331.98,1203.1,4471.75,0,0,0,0
18.03,5.27,-2.81,-1355.98,1210.1,4457.75,0.0,0.0,-1.7,0.0
3.03,-0.73,1.19,-1342.98,1196.1,4450.75,0,0,0,0
-24.97,-9.73,7.19,-1355.98,1156.1,4440.75,0,0,0,0
27.03,5.27,-3.81,-1335.98,1224.1,4492.75,0,0,0,0
-9.97,-1.73,3.19,-1342.98,1210.1,4432.75,0,0,0,0
67.03,7.27,-10.81,-1322.98,1217.1,4484.75,0,0,0,0
-32.97,-12.73,8.19,-1314.98,1240.1,4498.75,0,0,0,0
-48.97,-8.73,10.19,-1355.98,1154.1,4412.75,0.0,0.0,-1.7,0.0
37.03,6.27,-5.81,-1326.98,1165.1,4448.75,0,0,0,0
-54.97,-16.73,13.19,-1341.98,1125.1,4439.75,0,0,0,0
52.03,11.27,-8.81,-1364.98,1252.1,4491.75,0,0,0,0
-47.97,-7.73,10.19,-1348.98,1201.1,4447.75,0,0,0,0
15.03,1.27,-1.81,-1316.98,1181.1,4497.75,0,0,0,0
-24.97,-8.73,6.19,-1336.98,1152.1,4479.75,0,0,0,0
25.03,7.27,-4.81,-1338.98,1220.1,4477.75,0.0,0.0,-1.7,0.0
41.03,5.27,-6.81,-1346.98,1199.1,4489.75,0,0,0,0
-29.97,-13.73,8.19,-1340.98,1191.1,4469.75,0,0,0,0
0.03,2.27,1.19,-1358.98,1229.1,4498.75,0,0,0,0
8.03,-1.73,0.19,-1332.98,1183.1,4427.75,0,0,0,0
-16.97,-5.73,4.19,-1349.98,1204.1,4517.75,0,0,0,0
24.03,6.27,-3.81,-1339.98,1210.1,4498.75,0,0,0,0
-40.97,-11.73,9.19,-1346.98,1166.1,4442.75,0,0,0,0
7.03,2.27,0.19,-1340.98,1182.1,4467.75,0,0,0,0
0,0,0,0,0,0,0,0,0,0
5.03,1.27,0.19,-1339.98,1197.1,4479.75,0,0,0,0
-28.97,-9.73,8.19,-1337.98,1195.1,4480.75,0,0,0,0
13.03,3.27,-1.81,-1349.98,1191.1,4514.75,0,0,0,0
2.03,-1.73,1.19,-1336.98,1179.1,4487.75,0.0,0.0,-1.7,0.0
-10.97,-1.73,3.19,-1353.98,1196.1,4441.75,0,0,0,0
20.03,3.27,-1.81,-1364.98,1207.1,4486.75,0,0,0,0
100.03,-4.73,-13.81,-1222.98,1503.1,4556.75,0,0,0,0
-28.97,6.27,5.19,-1333.98,1249.1,4472.75,0,0,0,0
-41.97,-6.73,9.19,-1376.98,1105.1,4437.75,0,0,0,0
25.03,-0.73,-2.81,-1322.98,1147.1,4418.75,0,0,0,0
3.03,2.27,0.19,-1364.98,1261.1,4531.75,0.0,0.0,-1.7,0.0
71.03,17.27,-12.81,-1359.98,1246.1,4512.75,0,0,0,0
-4.97,-10.73,3.19,-1304.98,1184.1,4475.75,0,0,0,0
-31.97,1.27,6.19,-1368.98,1241.1,4489.75,0,0,0,0
-9.97,-4.73,4.19,-1367.98,1117.1,4414.75,0.0,0.0,-1.7,0.0
5.03,-1.73,0.19,-1326.98,1235.1,4493.75,0,0,0,0
-1.97,1.27,0.19,-1356.98,1205.1,4493.75,0,0,0,0
-3.97,1.27,2.19,-1337.98,1204.1,4477.75,0,0,0,0
-53.97,-12.73,12.19,-1367.98,1171.1,4451.75,0,0,0,0
13.03,-2.73,-0.81,-1339.98,1179.1,4447.75,0,0,0,0
18.03,3.27,-2.81,-1313.98,1223.1,4480.75,0,0,0,0
-24.97,-3.73,6.19,-1362.98,1182.1,4434.75,0.0,0.0,-1.7,0.0
36.03,5.27,-4.81,-1333.98,1221.1,4503.75,0,0,0,0
-30.97,-9.73,7.19,-1335.98,1185.1,4454.75,0,0,0,0
48.03,11.27,-8.81,-1323.98,1237.1,4495.75,0,0,0,0
-29.97,-7.73,7.19,-1341.98,1190.1,4462.75,0,0,0,0
16.03,2.27,-0.81,-1337.98,1229.1,4482.75,0,0,0,0
1.03,0.27,1.19,-1363.98,1210.1,4466.75,0,0,0,0
8.03,1.27,0.19,-1333.98,1196.1,4461.75,0.0,0.0,-1.7,0.0
11.03,2.27,-1.81,-1339.98,1226.1,4479.75,0,0,0,0
7.03,1.27,0.19,-1362.98,1210.1,4454.75,0,0,0,0
-7.97,-3.73,3.19,-1355.98,1175.1,4475.75,0,0,0,0
8.03,2.27,0.19,-1344.98,1242.1,4498.75,0,0,0,0
-2.97,-0.73,1.19,-1342.98,1200.1,4473.75,0,0,0,0
-12.97,-2.73,4.19,-1357.98,1178.1,4467.75,0,0,0,0
-2.97,-3.73,2.19,-1356.98,1175.1,4452.75,0.0,0.0,-1.7,0.0
-6.97,-0.73,3.19,-1343.98,1214.1,4503.75,0,0,0,0
-2.97,-1.73,2.19,-1340.98,1185.1,4463.75,0,0,0,0
-2.97,-0.73,1.19,-1335.98,1216.1,4517.75,0,0,0,0
-1.97,0.27,2.19,-1362.98,1207.1,4461.75,0,0,0,0
-15.97,-5.73,4.19,-1356.98,1164.1,4433.75,0,0,0,0
18.03,3.27,-1.81,-1337.98,1216.1,4493.75,0,0,0,0
7.03,2.27,-0.81,-1324.98,1218.1,4491.75,0.0,0.0,-1.7,0.0
-29.97,-7.73,7.19,-1372.98,1150.1,4425.75,0,0,0,0
18.03,1.27,-1.81,-1330.98,1208.1,4460.75,0,0,0,0
13.03,2.27,-1.81,-1343.98,1236.1,4486.75,0,0,0,0
-12.97,-2.73,3.19,-1349.98,1203.1,4484.75,0,0,0,0
-22.97,-5.73,6.19,-1372.98,1190.1,4431.75,0,0,0,0
12.03,1.27,-0.81,-1356.98,1200.1,4456.75,0,0,0,0
14.03,1.27,-1.81,-1341.98,1236.1,4506.75,0,0,0,0
-17.97,-4.73,4.19,-1349.98,1186.1,4457.75,0,0,0,0
-19.97,-5.73,5.19,-1361.98,1164.1,4439.75,0,0,0,0
16.03,4.27,-1.81,-1350.98,1211.1,4468.75,0,0,0,0
7.03,1.27,-0.81,-1354.98,1230.1,4487.75,0,0,0,0
-7.97,-2.73,3.19,-1342.98,1193.1,4459.75,0.0,0.0,-1.7,0.0
8.03,-0.73,0.19,-1343.98,1210.1,4475.75,0,0,0,0
-2.97,0.27,2.19,-1345.98,1214.1,4500.75,0,0,0,0
-9.97,-2.73,3.19,-1357.98,1175.1,4475.75,0,0,0,0
0.03,0.27,1.19,-1342.98,1210.1,4520.75,0,0,0,0
-11.97,-2.73,4.19,-1337.98,1166.1,4467.75,0,0,0,0
3.03,-1.73,1.19,-1358.98,1200.1,4459.75,0,0,0,0
5.03,2.27,0.19,-1339.98,1230.1,4508.75,0,0,0,0
10.03,2.27,-0.81,-1338.98,1214.1,4466.75,0,0,0,0
-11.97,-3.73,4.19,-1349.98,1189.1,4444.75,0,0,0,0
4.03,2.27,0.19,-1349.98,1221.1,4475.75,0,0,0,0
6.03,0.27,0.19,-1352.98,1197.1,4462.75,0,0,0,0
-3.97,-1.73,2.19,-1339.98,1191.1,4491.75,0.0,0.0,-1.7,0.0
7.03,2.27,-0.81,-1325.98,1221.1,4458.75,0,0,0,0
-4.97,-2.73,2.19,-1348.98,1188.1,4444.75,0,0,0,0
3.03,0.27,0.19,-1336.98,1207.1,4472.75,0,0,0,0
8.03,0.27,0.19,-1344.98,1210.1,4486.75,0,0,0,0
-4.97,-2.73,2.19,-1359.98,1196.1,4474.75,0,0,0,0
7.03,2.27,-0.81,-1336.98,1209.1,4463.75,0,0,0,0
1.03,-0.73,1.19,-1345.98,1207.1,4464.75,0.0,0.0,-1.7,0.0
-7.97,-2.73,3.19,-1344.98,1173.1,4452.75,0,0,0,0
6.03,1.27,0.19,-1322.98,1199.1,4473.75,0,0,0,0
-4.97,-1.73,2.19,-1349.98,1194.1,4491.75,0,0,0,0
7.03,1.27,0.19,-1345.98,1202.1,4483.75,0,0,0,0
-7.97,-3.73,3.19,-1355.98,1176.1,4456.75,0,0,0,0
-7.97,-0.73,3.19,-1356.98,1198.1,4458.75,0,0,0,0
17.03,1.27,-2.81,-1342.98,1214.1,4443.75,0.0,0.0,-1.7,0.0
-24.97,-7.73,6.19,-1336.98,1183.1,4460.75,0,0,0,0
-5.97,-1.73,3.19,-1348.98,1207.1,4474.75,0,0,0,0
12.03,1.27,-1.81,-1349.98,1208.1,4453.75,0,0,0,0
-2.97,-1.73,2.19,-1345.98,1200.1,4488.75,0,0,0,0
1.03,1.27,0.19,-1340.98,1192.1,4453.75,0,0,0,0
-1.97,-1.73,1.19,-1334.98,1193.1,4444.75,0,0,0,0
8.03,-1.73,0.19,-1341.98,1217.1,4477.75,0,0,0,0
-20.97,-2.73,5.19,-1356.98,1219.1,4455.75,0,0,0,0
0,0,0,0,0,0,0,0,0,0
-23.97,-5.73,6.19,-1356.98,1152.1,4451.75,0,0,0,0
17.03,2.27,-1.81,-1354.98,1258.1,4488.75,0,0,0,0
19.03,2.27,-2.81,-1323.98,1197.1,4462.75,0,0,0,0
-22.97,-8.73,6.19,-1324.98,1185.1,4462.75,0.0,0.0,-1.7,0.0
-18.97,-5.73,4.19,-1356.98,1207.1,4453.75,0,0,0,0
28.03,7.27,-4.81,-1341.98,1203.1,4481.75,0,0,0,0
-25.97,-8.73,7.19,-1344.98,1179.1,4429.75,0,0,0,0
25.03,7.27,-3.81,-1344.98,1222.1,4501.75,0,0,0,0
0.03,-1.73,2.19,-1352.98,1200.1,4453.75,0,0,0,0
-8.97,-2.73,3.19,-1356.98,1222.1,4471.75,0,0,0,0
18.03,5.27,-2.81,-1356.98,1227.1,4459.75,0.0,0.0,-1.7,0.0
-6.97,-1.73,3.19,-1341.98,1199.1,4479.75,0,0,0,0
-10.97,-2.73,3.19,-1356.98,1210.1,4458.75,0,0,0,0
22.03,5.27,-3.81,-1346.98,1188.1,4448.75,0,0,0,0
4.03,-0.73,0.19,-1339.98,1212.1,4468.75,0.0,0.0,-1.7,0.0
-14.97,-2.73,4.19,-1353.98,1197.1,4486.75,0,0,0,0
-2.97,-1.73,2.19,-1333.98,1190.1,4471.75,0,0,0,0
5.03,0.27,0.19,-1346.98,1203.1,4466.75,0,0,0,0
-1.97,0.27,1.19,-1335.98,1216.1,4487.75,0,0,0,0
1.03,0.27,0.19,-1358.98,1212.1,4455.75,0,0,0,0
3.03,-0.73,1.19,-1360.98,1214.1,4484.75,0,0,0,0
-1.97,-1.73,1.19,-1359.98,1219.1,4460.75,0.0,0.0,-1.7,0.0
-3.97,-1.73,1.19,-1335.98,1212.1,4450.75,0,0,0,0
3.03,0.27,0.19,-1336.98,1212.1,4476.75,0,0,0,0
-5.97,-2.73,3.19,-1345.98,1199.1,4469.75,0,0,0,0
3.03,-1.73,1.19,-1357.98,1206.1,4453.75,0,0,0,0
4.03,0.27,0.19,-1343.98,1211.1,4460.75,0,0,0,0
-2.97,-0.73,2.19,-1341.98,1215.1,4492.75,0,0,0,0
4.03,0.27,0.19,-1340.98,1193.1,4470.75,0.0,0.0,-1.7,0.0
1.03,-0.73,1.19,-1367.98,1202.1,4472.75,0,0,0,0
0.03,-0.73,1.19,-1339.98,1200.1,4463.75,0,0,0,0
0.03,0.27,1.19,-1339.98,1202.1,4478.75,0,0,0,0
-5.97,-2.73,2.19,-1343.98,1202.1,4458.75,0,0,0,0
-6.97,-1.73,2.19,-1362.98,1214.1,4464.75,0,0,0,0
9.03,-2.73,0.19,-1345.98,1203.1,4483.75,0,0,0,0
-8.97,-2.73,2.19,-1350.98,1205.1,4429.75,0.0,0.0,-1.7,0.0
18.03,1.27,-2.81,-1315.98,1210.1,4506.75,0,0,0,0
-10.97,7.27,2.19,-1349.98,1235.1,4482.75,0,0,0,0
-25.97,-4.73,6.19,-1363.98,1164.1,4473.75,0,0,0,0
19.03,4.27,-3.81,-1360.98,1207.1,4490.75,0,0,0,0
-6.97,-2.73,3.19,-1364.98,1187.1,4447.75,0,0,0,0
4.03,0.27,0.19,-1335.98,1225.1,4483.75,0,0,0,0
-3.97,-3.73,2.19,-1360.98,1187.1,4453.75,0.0,0.0,-1.7,0.0
-6.97,-1.73,2.19,-1350.98,1223.1,4465.75,0,0,0,0
3.03,-0.73,1.19,-1360.98,1208.1,4502.75,0,0,0,0
-1.97,-2.73,2.19,-1342.98,1205.1,4467.75,0,0,0,0
-2.97,-1.73,2.19,-1351.98,1214.1,4466.75,0,0,0,0
1.03,0.27,1.19,-1353.98,1211.1,4462.75,0,0,0,0
-2.97,-1.73,1.19,-1355.98,1203.1,4492.75,0,0,0,0
-0.97,-0.73,1.19,-1352.98,1214.1,4490.75,0.0,0.0,-1.7,0.0
3.03,-1.73,1.19,-1348.98,1210.1,4458.75,0,0,0,0
-27.97,-9.73,6.19,-1331.98,1164.1,4453.75,0,0,0,0
3.03,-5.73,2.19,-1297.98,1208.1,4507.75,0,0,0,0
-6.97,-3.73,3.19,-1353.98,1202.1,4465.75,0.0,0.0,-1.7,0.0
14.03,2.27,-0.81,-1343.98,1203.1,4489.75,0,0,0,0
21.03,6.27,-3.81,-1359.98,1264.1,4523.75,0,0,0,0
2.03,0.27,1.19,-1364.98,1222.1,4457.75,0,0,0,0
5.03,0.27,0.19,-1341.98,1213.1,4492.75,0,0,0,0
0.03,0.27,0.19,-1322.98,1208.1,4480.75,0,0,0,0
-15.97,-2.73,4.19,-1358.98,1190.1,4465.75,0,0,0,0
-6.97,-2.73,2.19,-1336.98,1195.1,4460.75,0.0,0.0,-1.7,0.0
5.03,0.27,0.19,-1344.98,1210.1,4477.75,0,0,0,0
-6.97,-2.73,2.19,-1344.98,1219.1,4510.75,0,0,0,0
-14.97,0.27,5.19,-1360.98,1202.1,4441.75,0,0,0,0
10.03,1.27,-0.81,-1354.98,1204.1,4455.75,0,0,0,0
28.03,6.27,-4.81,-1346.98,1239.1,4520.75,0,0,0,0
-8.97,-2.73,3.19,-1351.98,1223.1,4483.75,0,0,0,0
25.03,4.27,-4.81,-1346.98,1273.1,4490.75,0.0,0.0,-1.7,0.0
9.03,1.27,-0.81,-1364.98,1217.1,4463.75,0,0,0,0
-9.97,-1.73,3.19,-1369.98,1190.1,4469.75,0,0,0,0
52.03,-5.73,-17.81,-1030.98,1069.1,3715.75,0,0,0,0
273.03,122.27,-71.81,-1566.98,1675.1,4986.75,0,0,0,0
-154.97,-20.73,33.19,-1553.98,1003.1,4422.75,0,0,0,0
92.03,30.27,-16.81,-1571.98,1269.1,4573.75,0,0,0,0
-47.97,-17.73,10.19,-1530.98,1097.1,4402.75,0.0,0.0,-1.7,0.0
-18.97,-3.73,4.19,-1548.98,1183.1,4512.75,0,0,0,0
-19.97,-0.73,5.19,-1545.98,1101.1,4475.75,0,0,0,0
8.03,-1.73,0.19,-1540.98,1147.1,4497.75,0,0,0,0
-2.97,0.27,1.19,-1539.98,1161.1,4509.75,0,0,0,0
19.03,4.27,-1.81,-1539.98,1156.1,4537.75,0,0,0,0
-12.97,-5.73,3.19,-1514.98,1131.1,4488.75,0,0,0,0
-5.97,-4.73,2.19,-1526.98,1158.1,4480.75,0,0,0,0
20.03,3.27,-1.81,-1527.98,1177.1,4489.75,0,0,0,0
-0.97,2.27,2.19,-1556.98,1145.1,4521.75,0,0,0,0
-0.97,-0.73,1.19,-1541.98,1166.1,4464.75,0,0,0,0
0.03,-0.73,1.19,-1530.98,1156.1,4492.75,0,0,0,0
0.03,0.27,1.19,-1549.98,1160.1,4502.75,0,0,0,0
2.03,0.27,1.19,-1544.98,1150.1,4515.75,0,0,0,0
-7.97,-3.73,2.19,-1537.98,1144.1,4473.75,0,0,0,0
17.03,3.27,-1.81,-1548.98,1160.1,4513.75,0,0,0,0
-9.97,-0.73,3.19,-1549.98,1134.1,4517.75,0.0,0.0,-1.7,0.0
-5.97,-2.73,2.19,-1532.98,1157.1,4499.75,0,0,0,0
7.03,0.27,0.19,-1522.98,1148.1,4501.75,0,0,0,0
4.03,0.27,0.19,-1531.98,1170.1,4494.75,0,0,0,0
-2.97,-0.73,2.19,-1543.98,1166.1,4476.75,0,0,0,0
0.03,-0.73,1.19,-1530.98,1155.1,4488.75,0,0,0,0
2.03,-1.73,0.19,-1548.98,1152.1,4472.75,0,0,0,0
0.03,0.27,1.19,-1532.98,1178.1,4501.75,0.0,0.0,-1.7,0.0
-0.97,-0.73,1.19,-1537.98,1168.1,4474.75,0,0,0,0
2.03,-1.73,1.19,-1537.98,1157.1,4473.75,0,0,0,0
-4.97,-1.73,2.19,-1524.98,1157.1,4490.75,0,0,0,0
10.03,1.27,-0.81,-1521.98,1165.1,4518.75,0,0,0,0
-4.97,-1.73,2.19,-1556.98,1155.1,4499.75,0,0,0,0
-2.97,-0.73,2.19,-1546.98,1141.1,4465.75,0,0,0,0
4.03,-0.73,0.19,-1549.98,1147.1,4492.75,0.0,0.0,-1.7,0.0
-8.97,-1.73,2.19,-1539.98,1150.1,4477.75,0,0,0,0
4.03,1.27,1.19,-1535.98,1160.1,4521.75,0,0,0,0
1.03,-1.73,0.19,-1538.98,1146.1,4483.75,0,0,0,0
-8.97,-2.73,4.19,-1526.98,1140.1,4505.75,0,0,0,0
-16.97,-3.73,4.19,-1545.98,1149.1,4481.75,0,0,0,0
0.03,-3.73,1.19,-1539.98,1143.1,4478.75,0,0,0,0
-10.97,-5.73,4.19,-1536.98,1136.1,4487.75,0.0,0.0,-1.7,0.0
6.03,-0.73,0.19,-1546.98,1142.1,4472.75,0,0,0,0
0.03,0.27,0.19,-1556.98,1146.1,4481.75,0,0,0,0
13.03,1.27,-0.81,-1537.98,1173.1,4495.75,0,0,0,0
12.03,1.27,-0.81,-1534.98,1181.1,4523.75,0,0,0,0
-5.97,-0.73,3.19,-1552.98,1145.1,4498.75,0,0,0,0
7.03,0.27,0.19,-1544.98,1156.1,4499.75,0,0,0,0
14.03,2.27,-2.81,-1515.98,1194.1,4510.75,0.0,0.0,-1.7,0.0
-12.97,-3.73,4.19,-1541.98,1132.1,4481.75,0,0,0,0
15.03,2.27,-1.81,-1531.98,1158.1,4506.75,0,0,0,0
-1.97,-0.73,1.19,-1536.98,1165.1,4492.75,0,0,0,0
-6.97,-0.73,3.19,-1536.98,1150.1,4500.75,0,0,0,0
4.03,-0.73,0.19,-1542.98,1155.1,4503.75,0,0,0,0
-8.97,-2.73,2.19,-1523.98,1145.1,4489.75,0,0,0,0
-2.97,0.27,2.19,-1541.98,1157.1,4496.75,0.0,0.0,-1.7,0.0
-57.97,-1.73,11.19,-1588.98,1121.1,4448.75,0,0,0,0
0.03,-3.73,0.19,-1546.98,1065.1,4410.75,0,0,0,0
21.03,13.27,-0.81,-1583.98,1276.1,4587.75,0,0,0,0
70.03,35.27,-17.81,-1585.98,1155.1,4466.75,0.0,0.0,-1.7,0.0
-5.97,2.27,4.19,-1577.98,1201.1,4541.75,0,0,0,0
77.03,14.27,-15.81,-1558.98,1188.1,4501.75,0,0,0,0
-116.97,-20.73,23.19,-1540.98,1081.1,4438.75,0,0,0,0
-24.97,-7.73,4.19,-1549.98,1022.1,4410.75,0,0,0,0
-21.97,2.27,7.19,-1530.98,1080.1,4476.75,0,0,0,0
-6.97,58.27,-8.81,-1542.98,977.1,4396.75,0,0,0,0
-186.97,55.27,29.19,-1589.98,873.1,4481.75,0.0,0.0,-1.7,0.0
-29.97,18.27,8.19,-1609.98,907.1,4514.75,0,0,0,0
-165.97,11.27,31.19,-1637.98,688.1,4448.75,0,0,0,0
164.03,22.27,-27.81,-1520.98,948.1,4577.75,0,0,0,0
-0.97,6.27,3.19,-1572.98,1021.1,4568.75,0,0,0,0
-140.97,-15.73,25.19,-1575.98,701.1,4353.75,0,0,0,0
123.03,10.27,-20.81,-1535.98,930.1,4508.75,0,0,0,0
8.03,0.27,2.19,-1565.98,952.1,4563.75,0.0,0.0,-1.7,0.0
20.03,4.27,-2.81,-1572.98,857.1,4424.75,0,0,0,0
23.03,-0.73,-2.81,-1552.98,923.1,4490.75,0,0,0,0
-4.97,0.27,3.19,-1564.98,887.1,4511.75,0,0,0,0
3.03,-7.73,-0.81,-1547.98,897.1,4481.75,0,0,0,0
16.03,2.27,-1.81,-1556.98,919.1,4476.75,0,0,0,0
-21.97,-4.73,6.19,-1558.98,853.1,4459.75,0,0,0,0
9.03,0.27,-0.81,-1560.98,871.1,4476.75,0.0,0.0,-1.7,0.0
10.03,-1.73,-0.81,-1545.98,896.1,4494.75,0,0,0,0
-13.97,-2.73,4.19,-1568.98,894.1,4501.75,0,0,0,0
20.03,3.27,-2.81,-1554.98,903.1,4465.75,0,0,0,0
8.03,1.27,0.19,-1547.98,905.1,4498.75,0,0,0,0
-9.97,-0.73,3.19,-1560.98,876.1,4479.75,0,0,0,0
0.03,-0.73,2.19,-1553.98,871.1,4466.75,0,0,0,0
4.03,0.27,0.19,-1565.98,891.1,4478.75,0,0,0,0
3.03,0.27,1.19,-1555.98,895.1,4531.75,0,0,0,0
0,0,0,0,0,0,0,0,0,0
6.03,-1.73,-0.81,-1559.98,908.1,4475.75,0,0,0,0
-12.97,-1.73,4.19,-1551.98,877.1,4466.75,0,0,0,0
-3.97,-0.73,2.19,-1546.98,866.1,4465.75,0,0,0,0
6.03,-0.73,0.19,-1564.98,899.1,4509.75,0.0,0.0,-1.7,0.0
2.03,-3.73,0.19,-1547.98,899.1,4460.75,0,0,0,0
-6.97,-1.73,3.19,-1561.98,879.1,4501.75,0,0,0,0
-6.97,-2.73,3.19,-1554.98,874.1,4490.75,0,0,0,0
1.03,1.27,1.19,-1554.98,865.1,4479.75,0,0,0,0
-5.97,-1.73,3.19,-1564.98,870.1,4463.75,0,0,0,0
7.03,0.27,0.19,-1562.98,876.1,4506.75,0,0,0,0
-7.97,-2.73,3.19,-1554.98,862.1,4461.75,0.0,0.0,-1.7,0.0
-0.97,-5.73,2.19,-1570.98,870.1,4478.75,0,0,0,0
25.03,2.27,-2.81,-1551.98,926.1,4505.75,0,0,0,0
-22.97,-1.73,6.19,-1559.98,899.1,4473.75,0,0,0,0
17.03,-0.73,-1.81,-1562.98,871.1,4480.75,0,0,0,0
10.03,-0.73,-0.81,-1552.98,910.1,4525.75,0,0,0,0
-16.97,-3.73,4.19,-1570.98,873.1,4481.75,0,0,0,0
-4.97,-1.73,2.19,-1556.98,872.1,4475.75,0,0,0,0
8.03,0.27,0.19,-1555.98,871.1,4469.75,0,0,0,0
13.03,0.27,-1.81,-1557.98,885.1,4476.75,0,0,0,0
-2.97,-1.73,2.19,-1545.98,902.1,4485.75,0,0,0,0
-9.97,-0.73,3.19,-1568.98,882.1,4487.75,0,0,0,0
6.03,0.27,-0.81,-1540.98,870.1,4482.75,0.0,0.0,-1.7,0.0
9.03,-0.73,-0.81,-1548.98,920.1,4495.75,0,0,0,0
-8.97,-0.73,3.19,-1550.98,867.1,4487.75,0,0,0,0
8.03,1.27,0.19,-1553.98,883.1,4508.75,0,0,0,0
2.03,-0.73,0.19,-1554.98,883.1,4492.75,0,0,0,0
7.03,0.27,-0.81,-1550.98,900.1,4489.75,0,0,0,0
-18.97,-5.73,3.19,-1550.98,876.1,4476.75,0,0,0,0
-1.97,0.27,1.19,-1565.98,843.1,4463.75,0.0,0.0,-1.7,0.0
7.03,-1.73,-0.81,-1556.98,902.1,4487.75,0,0,0,0
-3.97,-0.73,1.19,-1561.98,862.1,4481.75,0,0,0,0
13.03,2.27,-0.81,-1553.98,907.1,4502.75,0,0,0,0
-11.97,-2.73,4.19,-1553.98,874.1,4472.75,0,0,0,0
11.03,0.27,-0.81,-1556.98,886.1,4494.75,0,0,0,0
15.03,1.27,-1.81,-1538.98,897.1,4495.75,0,0,0,0
-6.97,-0.73,3.19,-1552.98,896.1,4492.75,0,0,0,0
-10.97,-0.73,3.19,-1577.98,872.1,4489.75,0,0,0,0
0,0,0,0,0,0,0,0,0,0
-19.97,-3.73,5.19,-1560.98,853.1,4466.75,0,0,0,0
11.03,-3.73,-0.81,-1555.98,907.1,4514.75,0,0,0,0
2.03,0.27,1.19,-1561.98,909.1,4469.75,0,0,0,0
-6.97,-0.73,3.19,-1564.98,879.1,4483.75,0.0,0.0,-1.7,0.0
2.03,1.27,1.19,-1565.98,861.1,4472.75,0,0,0,0
20.03,-0.73,-2.81,-1541.98,904.1,4496.75,0,0,0,0
235.03,-1.73,5.19,-1566.98,895.1,4459.75,0,0,0,0
1.03,-0.73,1.19,-1541.98,878.1,4480.75,0,0,0,0
6.03,-0.73,-0.81,-1560.98,889.1,4503.75,0,0,0,0
-0.97,2.27,1.19,-1555.98,887.1,4471.75,0,0,0,0
-8.97,-3.73,3.19,-1548.98,874.1,4470.75,0,0,0,0
4.03,0.27,0.19,-1556.98,892.1,4478.75,0,0,0,0
0,0,0,0,0,0,0,0,0,0
8.03,-0.73,-0.81,-1549.98,877.1,4503.75,0,0,0,0
7.03,0.27,-0.81,-1548.98,907.1,4507.75,0,0,0,0
-7.97,-0.73,2.19,-1567.98,898.1,4477.75,0,0,0,0
-9.97,-2.73,3.19,-1559.98,879.1,4468.75,0.0,0.0,-1.7,0.0
8.03,0.27,0.19,-1558.98,909.1,4486.75,0,0,0,0
-0.97,0.27,1.19,-1565.98,878.1,4498.75,0,0,0,0
-8.97,-1.73,3.19,-1558.98,870.1,4498.75,0,0,0,0
6.03,0.27,0.19,-1542.98,865.1,4504.75,0,0,0,0
0.03,-2.73,1.19,-1558.98,879.1,4477.75,0,0,0,0
3.03,-1.73,0.19,-1560.98,918.1,4485.75,0,0,0,0
-6.97,-1.73,2.19,-1564.98,877.1,4464.75,0.0,0.0,-1.7,0.0
2.03,-0.73,1.19,-1544.98,859.1,4519.75,0,0,0,0
-0.97,-1.73,1.19,-1560.98,884.1,4480.75,0,0,0,0
0.03,-0.73,1.19,-1553.98,876.1,4473.75,0,0,0,0
9.03,0.27,-0.81,-1551.98,901.1,4498.75,0,0,0,0
-8.97,-6.73,2.19,-1548.98,889.1,4470.75,0,0,0,0
4.03,-1.73,0.19,-1551.98,895.1,4487.75,0,0,0,0
-2.97,-0.73,1.19,-1561.98,876.1,4464.75,0.0,0.0,-1.7,0.0
5.03,1.27,0.19,-1556.98,885.1,4489.75,0,0,0,0
-8.97,-2.73,2.19,-1559.98,884.1,4494.75,0,0,0,0
6.03,-0.73,0.19,-1551.98,898.1,4478.75,0,0,0,0
1.03,-0.73,1.19,-1557.98,890.1,4494.75,0,0,0,0
-2.97,-0.73,1.19,-1568.98,899.1,4489.75,0,0,0,0
8.03,0.27,0.19,-1563.98,873.1,4453.75,0,0,0,0
-0.97,-2.73,2.19,-1554.98,882.1,4474.75,0.0,0.0,-1.7,0.0
0.03,-0.73,1.19,-1563.98,885.1,4466.75,0,0,0,0
9.03,-0.73,-0.81,-1558.98,899.1,4477.75,0,0,0,0
-4.97,-0.73,2.19,-1550.98,885.1,4502.75,0,0,0,0
-5.97,-0.73,2.19,-1568.98,888.1,4478.75,0,0,0,0
7.03,0.27,-0.81,-1559.98,901.1,4477.75,0,0,0,0
1.03,-0.73,1.19,-1559.98,890.1,4500.75,0,0,0,0
-13.97,-1.73,4.19,-1566.98,864.1,4477.75,0.0,0.0,-1.7,0.0
11.03,0.27,-0.81,-1558.98,880.1,4504.75,0,0,0,0
7.03,0.27,-0.81,-1553.98,897.1,4482.75,0,0,0,0
-5.97,-1.73,2.19,-1568.98,867.1,4490.75,0,0,0,0
5.03,0.27,0.19,-1575.98,883.1,4528.75,0,0,0,0
-0.97,-0.73,1.19,-1570.98,880.1,4472.75,0,0,0,0
15.03,1.27,-1.81,-1537.98,899.1,4489.75,0,0,0,0
-10.97,-0.73,3.19,-1552.98,884.1,4480.75,0.0,0.0,-1.7,0.0
13.03,0.27,-0.81,-1550.98,911.1,4508.75,0,0,0,0
-5.97,-2.73,2.19,-1569.98,895.1,4476.75,0,0,0,0
0.03,-1.73,1.19,-1561.98,891.1,4448.75,0,0,0,0
5.03,1.27,0.19,-1553.98,880.1,4476.75,0.0,0.0,-1.7,0.0
-3.97,-1.73,2.19,-1542.98,877.1,4495.75,0,0,0,0
-21.97,-5.73,6.19,-1564.98,847.1,4470.75,0,0,0,0
9.03,-2.73,-1.81,-1534.98,880.1,4459.75,0,0,0,0
3.03,1.27,0.19,-1549.98,891.1,4481.75,0,0,0,0
-13.97,-2.73,3.19,-1542.98,853.1,4475.75,0,0,0,0
6.03,-0.73,0.19,-1564.98,874.1,4493.75,0,0,0,0
13.03,0.27,-1.81,-1541.98,909.1,4481.75,0.0,0.0,-1.7,0.0
-1.97,-0.73,1.19,-1567.98,876.1,4450.75,0,0,0,0
-1.97,-1.73,2.19,-1552.98,870.1,4499.75,0,0,0,0
1.03,-0.73,0.19,-1573.98,899.1,4468.75,0,0,0,0
1.03,-0.73,0.19,-1557.98,888.1,4491.75,0,0,0,0
1.03,-0.73,1.19,-1561.98,906.1,4459.75,0,0,0,0
-14.97,-0.73,5.19,-1568.98,838.1,4489.75,0,0,0,0
21.03,0.27,-2.81,-1555.98,892.1,4472.75,0.0,0.0,-1.7,0.0
-11.97,-3.73,3.19,-1544.98,880.1,4496.75,0,0,0,0
3.03,-1.73,0.19,-1547.98,879.1,4481.75,0,0,0,0
7.03,3.27,0.19,-1558.98,884.1,4502.75,0,0,0,0
-7.97,-2.73,2.19,-1552.98,874.1,4468.75,0,0,0,0
-13.97,1.27,4.19,-1573.98,851.1,4469.75,0,0,0,0
10.03,-2.73,-1.81,-1548.98,869.1,4456.75,0,0,0,0
23.03,2.27,-2.81,-1550.98,937.1,4487.75,0.0,0.0,-1.7,0.0
-7.97,2.27,3.19,-1568.98,885.1,4495.75,0,0,0,0
4.03,-3.73,1.19,-1547.98,877.1,4477.75,0,0,0,0
1.03,-0.73,1.19,-1557.98,904.1,4499.75,0,0,0,0
-3.97,0.27,2.19,-1558.98,891.1,4480.75,0,0,0,0
-1.97,-3.73,3.19,-1562.98,859.1,4477.75,0,0,0,0
9.03,-0.73,-1.81,-1546.98,911.1,4497.75,0,0,0,0
10.03,1.27,-1.81,-1563.98,893.1,4505.75,0.0,0.0,-1.7,0.0
-1.97,-1.73,2.19,-1555.98,871.1,4474.75,0,0,0,0
-3.97,-1.73,2.19,-1537.98,888.1,4485.75,0,0,0,0
19.03,4.27,-1.81,-1570.98,903.1,4491.75,0,0,0,0
-4.97,-2.73,2.19,-1583.98,891.1,4479.75,0,0,0,0
-23.97,-2.73,5.19,-1563.98,878.1,4472.75,0,0,0,0
36.03,7.27,-5.81,-1561.98,903.1,4513.75,0,0,0,0
-22.97,-5.73,5.19,-1555.98,890.1,4479.75,0.0,0.0,-1.7,0.0
-4.97,-2.73,3.19,-1559.98,863.1,4448.75,0,0,0,0
-14.97,-1.73,5.19,-1600.98,892.1,4499.75,0,0,0,0
22.03,4.27,-4.81,-1543.98,880.1,4455.75,0,0,0,0
9.03,-8.73,1.19,-1549.98,899.1,4446.75,0,0,0,0
12.03,7.27,-1.81,-1570.98,935.1,4516.75,0,0,0,0
-109.97,-20.73,23.19,-1616.98,760.1,4357.75,0,0,0,0
75.03,17.27,-12.81,-1568.98,884.1,4533.75,0,0,0,0
36.03,2.27,-5.81,-1537.98,977.1,4550.75,0,0,0,0
0,0,0,0,0,0,0,0,0,0
2.03,-0.73,0.19,-1549.98,931.1,4523.75,0,0,0,0
-42.97,-0.73,11.19,-1582.98,877.1,4483.75,0,0,0,0
68.03,10.27,-12.81,-1538.98,957.1,4511.75,0,0,0,0
-44.97,-9.73,9.19,-1578.98,897.1,4455.75,0.0,0.0,-1.7,0.0
1.03,-1.73,1.19,-1560.98,864.1,4454.75,0,0,0,0
34.03,6.27,-5.81,-1570.98,933.1,4525.75,0,0,0,0
-20.97,-3.73,5.19,-1556.98,888.1,4469.75,0,0,0,0
10.03,0.27,-0.81,-1556.98,886.1,4480.75,0,0,0,0
-10.97,-2.73,3.19,-1566.98,888.1,4481.75,0,0,0,0
6.03,1.27,0.19,-1562.98,888.1,4475.75,0,0,0,0
4.03,-1.73,0.19,-1548.98,894.1,4498.75,0.0,0.0,-1.7,0.0
6.03,-0.73,0.19,-1554.98,906.1,4465.75,0,0,0,0
0.03,0.27,1.19,-1547.98,896.1,4493.75,0,0,0,0
2.03,0.27,1.19,-1562.98,887.1,4481.75,0,0,0,0
13.03,-0.73,-0.81,-1538.98,888.1,4503.75,0,0,0,0
-1.97,-1.73,2.19,-1572.98,896.1,4490.75,0,0,0,0
-8.97,0.27,3.19,-1570.98,878.1,4468.75,0,0,0,0
-13.97,-5.73,4.19,-1543.98,860.1,4463.75,0.0,0.0,-1.7,0.0
-5.97,-3.73,1.19,-1558.98,899.1,4490.75,0,0,0,0
14.03,3.27,-0.81,-1556.98,914.1,4483.75,0,0,0,0
-2.97,-0.73,2.19,-1547.98,888.1,4488.75,0,0,0,0
-12.97,-2.73,3.19,-1560.98,871.1,4472.75,0,0,0,0
14.03,2.27,-1.81,-1554.98,904.1,4472.75,0,0,0,0
-11.97,-4.73,4.19,-1528.98,897.1,4456.75,0,0,0,0
7.03,2.27,0.19,-1569.98,893.1,4462.75,0,0,0,0
-0.97,-2.73,1.19,-1551.98,884.1,4503.75,0,0,0,0
0,0,0,0,0,0,0,0,0,0
0,0,0,0,0,0,0,0,0,0
2.03,0.27,0.19,-1547.98,893.1,4463.75,0,0,0,0
6.03,2.27,0.19,-1549.98,890.1,4475.75,0,0,0,0
0.03,-2.73,0.19,-1537.98,889.1,4480.75,0,0,0,0
-5.97,-0.73,3.19,-1559.98,913.1,4500.75,0.0,0.0,-1.7,0.0
-11.97,-0.73,3.19,-1556.98,882.1,4507.75,0,0,0,0
6.03,0.27,0.19,-1563.98,891.1,4470.75,0,0,0,0
1.03,-1.73,1.19,-1552.98,895.1,4495.75,0,0,0,0
-10.97,-2.73,3.19,-1563.98,868.1,4476.75,0,0,0,0
9.03,0.27,-0.81,-1558.98,898.1,4482.75,0,0,0,0
13.03,1.27,-0.81,-1543.98,912.1,4481.75,0,0,0,0
-22.97,-2.73,6.19,-1547.98,840.1,4494.75,0.0,0.0,-1.7,0.0
-37.97,3.27,11.19,-1574.98,880.1,4513.75,0,0,0,0
77.03,6.27,-14.81,-1542.98,964.1,4483.75,0,0,0,0
53.03,1.27,-9.81,-1539.98,1063.1,4531.75,0,0,0,0
-98.97,-12.73,20.19,-1554.98,849.1,4461.75,0,0,0,0
-9.97,-6.73,1.19,-1539.98,834.1,4438.75,0,0,0,0
11.03,9.27,0.19,-1568.98,884.1,4513.75,0,0,0,0
-23.97,-6.73,5.19,-1543.98,852.1,4447.75,0,0,0,0
26.03,-3.73,-3.81,-1545.98,860.1,4463.75,0,0,0,0
0,0,0,0,0,0,0,0,0,0
6.03,7.27,0.19,-1571.98,897.1,4513.75,0,0,0,0
-55.97,-5.73,12.19,-1579.98,808.1,4418.75,0,0,0,0
63.03,5.27,-9.81,-1539.98,923.1,4517.75,0,0,0,0
-13.97,-0.73,4.19,-1564.98,937.1,4524.75,0.0,0.0,-1.7,0.0
-14.97,-7.73,4.19,-1558.98,843.1,4425.75,0,0,0,0
12.03,-5.73,-0.81,-1537.98,851.1,4469.75,0,0,0,0
48.03,2.27,-8.81,-1526.98,933.1,4489.75,0,0,0,0
-23.97,-2.73,5.19,-1564.98,856.1,4458.75,0,0,0,0
19.03,0.27,-3.81,-1556.98,905.1,4480.75,0,0,0,0
20.03,5.27,-1.81,-1546.98,931.1,4511.75,0,0,0,0
-31.97,-8.73,6.19,-1557.98,884.1,4440.75,0,0,0,0
12.03,2.27,-1.81,-1558.98,906.1,4464.75,0,0,0,0
0,0,0,0,0,0,0,0,0,0
3.03,-1.73,1.19,-1553.98,868.1,4494.75,0,0,0,0
-12.97,-2.73,4.19,-1563.98,888.1,4473.75,0,0,0,0
9.03,1.27,-0.81,-1555.98,899.1,4487.75,0,0,0,0
-7.97,-3.73,3.19,-1545.98,858.1,4468.75,0,0,0,0
-10.97,-4.73,3.19,-1563.98,880.1,4462.75,0,0,0,0
4.03,1.27,1.19,-1563.98,874.1,4498.75,0,0,0,0
-7.97,-4.73,3.19,-1536.98,855.1,4482.75,0,0,0,0
-9.97,-0.73,3.19,-1563.98,882.1,4468.75,0,0,0,0
-15.97,-0.73,4.19,-1575.98,868.1,4464.75,0,0,0,0
14.03,0.27,-1.81,-1550.98,908.1,4527.75,0,0,0,0
-4.97,-1.73,2.19,-1562.98,901.1,4491.75,0,0,0,0
-7.97,-2.73,2.19,-1559.98,879.1,4482.75,0,0,0,0
5.03,0.27,0.19,-1555.98,909.1,4503.75,0,0,0,0
-1.97,0.27,2.19,-1560.98,888.1,4488.75,0,0,0,0
1.03,-0.73,1.19,-1562.98,896.1,4471.75,0,0,0,0
0.03,-0.73,1.19,-1561.98,889.1,4502.75,0.0,0.0,-1.7,0.0
3.03,-0.73,0.19,-1555.98,896.1,4469.75,0,0,0,0
-2.97,-0.73,2.19,-1567.98,896.1,4488.75,0,0,0,0
-0.97,0.27,1.19,-1572.98,882.1,4475.75,0,0,0,0
6.03,-0.73,0.19,-1567.98,897.1,4473.75,0,0,0,0
-5.97,-1.73,2.19,-1553.98,899.1,4482.75,0,0,0,0
-1.97,-1.73,1.19,-1563.98,876.1,4489.75,0,0,0,0
6.03,-0.73,0.19,-1559.98,890.1,4474.75,0.0,0.0,-1.7,0.0
7.03,1.27,0.19,-1548.98,894.1,4498.75,0,0,0,0
-11.97,-2.73,4.19,-1555.98,887.1,4493.75,0,0,0,0
8.03,-0.73,0.19,-1544.98,888.1,4476.75,0,0,0,0
8.03,0.27,0.19,-1554.98,894.1,4515.75,0,0,0,0
-14.97,-2.73,5.19,-1556.98,882.1,4497.75,0,0,0,0
1.03,-1.73,-0.81,-1546.98,898.1,4457.75,0,0,0,0
10.03,0.27,0.19,-1553.98,908.1,4486.75,0.0,0.0,-1.7,0.0
-11.97,-3.73,3.19,-1568.98,868.1,4479.75,0,0,0,0
10.03,0.27,-0.81,-1565.98,893.1,4487.75,0,0,0,0
14.03,1.27,-1.81,-1547.98,909.1,4457.75,0,0,0,0
-4.97,-0.73,2.19,-1555.98,902.1,4479.75,0,0,0,0
-5.97,0.27,2.19,-1572.98,891.1,4490.75,0,0,0,0
6.03,-0.73,0.19,-1556.98,896.1,4451.75,0,0,0,0
1.03,-0.73,1.19,-1552.98,896.1,4469.75,0.0,0.0,-1.7,0.0
-3.97,-0.73,2.19,-1563.98,901.1,4471.75,0,0,0,0
-2.97,-1.73,1.19,-1551.98,886.1,4489.75,0,0,0,0
7.03,-0.73,0.19,-1559.98,899.1,4477.75,0,0,0,0
-1.97,-0.73,2.19,-1546.98,901.1,4506.75,0,0,0,0
-13.97,-2.73,4.19,-1573.98,874.1,4460.75,0,0,0,0
13.03,1.27,-1.81,-1556.98,911.1,4491.75,0,0,0,0
3.03,-0.73,0.19,-1564.98,899.1,4490.75,0.0,0.0,-1.7,0.0
-2.97,-1.73,2.19,-1562.98,881.1,4465.75,0,0,0,0
9.03,-0.73,-0.81,-1563.98,890.1,4484.75,0,0,0,0
5.03,0.27,0.19,-1559.98,898.1,4486.75,0,0,0,0
-1.97,-1.73,1.19,-1551.98,907.1,4450.75,0,0,0,0
-9.97,-0.73,3.19,-1560.98,864.1,4494.75,0,0,0,0
0.03,-1.73,1.19,-1562.98,880.1,4460.75,0,0,0,0
10.03,0.27,-0.81,-1568.98,884.1,4507.75,0.0,0.0,-1.7,0.0
-3.97,-1.73,2.19,-1564.98,910.1,4470.75,0,0,0,0
4.03,0.27,0.19,-1552.98,897.1,4471.75,0,0,0,0
2.03,-0.73,1.19,-1537.98,884.1,4490.75,0,0,0,0
7.03,-0.73,0.19,-1558.98,908.1,4497.75,0.0,0.0,-1.7,0.0
-12.97,-2.73,4.19,-1547.98,869.1,4482.75,0,0,0,0
-1.97,-1.73,2.19,-1570.98,879.1,4452.75,0,0,0,0
5.03,-0.73,0.19,-1554.98,891.1,4516.75,0,0,0,0
-1.97,-0.73,1.19,-1540.98,888.1,4480.75,0,0,0,0
-5.97,-1.73,2.19,-1555.98,879.1,4490.75,0,0,0,0
9.03,0.27,0.19,-1553.98,892.1,4468.75,0,0,0,0
-4.97,-1.73,2.19,-1557.98,888.1,4481.75,0.0,0.0,-1.7,0.0
6.03,1.27,-0.81,-1533.98,907.1,4484.75,0,0,0,0
-8.97,-0.73,3.19,-1545.98,890.1,4455.75,0,0,0,0
4.03,-0.73,1.19,-1547.98,894.1,4489.75,0,0,0,0
-3.97,0.27,2.19,-1545.98,891.1,4498.75,0,0,0,0
-4.97,-2.73,2.19,-1555.98,890.1,4450.75,0,0,0,0
14.03,2.27,-1.81,-1549.98,918.1,4509.75,0,0,0,0
-13.97,-3.73,5.19,-1562.98,881.1,4485.75,0.0,0.0,-1.7,0.0
11.03,0.27,-0.81,-1548.98,898.1,4468.75,0,0,0,0
-5.97,-1.73,2.19,-1570.98,882.1,4462.75,0,0,0,0
4.03,0.27,0.19,-1562.98,889.1,4463.75,0,0,0,0
10.03,1.27,0.19,-1557.98,911.1,4492.75,0,0,0,0
-1.97,-1.73,2.19,-1566.98,897.1,4477.75,0,0,0,0
5.03,-0.73,0.19,-1580.98,905.1,4484.75,0,0,0,0
-3.97,-0.73,1.19,-1570.98,892.1,4472.75,0.0,0.0,-1.7,0.0
-7.97,-1.73,3.19,-1552.98,890.1,4476.75,0,0,0,0
-3.97,0.27,2.19,-1569.98,895.1,4520.75,0,0,0,0
-1.97,-0.73,1.19,-1568.98,882.1,4470.75,0,0,0,0
12.03,2.27,-0.81,-1541.98,911.1,4474.75,0,0,0,0
-7.97,-1.73,2.19,-1558.98,889.1,4499.75,0,0,0,0
-4.97,-1.73,2.19,-1543.98,881.1,4485.75,0,0,0,0
2.03,-0.73,1.19,-1555.98,877.1,4495.75,0.0,0.0,-1.7,0.0
-1.97,-1.73,2.19,-1568.98,901.1,4461.75,0,0,0,0
8.03,0.27,0.19,-1553.98,906.1,4507.75,0,0,0,0
2.03,-1.73,0.19,-1550.98,891.1,4509.75,0,0,0,0
7.03,-0.73,0.19,-1546.98,909.1,4487.75,0,0,0,0
0.03,-0.73,1.19,-1554.98,886.1,4510.75,0,0,0,0
-1.97,-2.73,1.19,-1550.98,893.1,4473.75,0,0,0,0
1.03,-2.73,1.19,-1557.98,886.1,4500.75,0.0,0.0,-1.7,0.0
-18.97,-11.73,3.19,-1517.98,861.1,4474.75,0,0,0,0
-0.97,-0.73,0.19,-1539.98,885.1,4456.75,0,0,0,0
-8.97,-4.73,1.19,-1529.98,873.1,4472.75,0,0,0,0
2.03,2.27,2.19,-1566.98,898.1,4508.75,0,0,0,0
-5.97,2.27,3.19,-1576.98,897.1,4479.75,0,0,0,0
22.03,-0.73,-2.81,-1557.98,888.1,4477.75,0,0,0,0
18.03,2.27,-2.81,-1555.98,948.1,4515.75,0.0,0.0,-1.7,0.0
68.03,-1.73,-13.81,-1489.98,983.1,4453.75,0,0,0,0
-86.97,-16.73,16.19,-1564.98,931.1,4382.75,0,0,0,0
-10.97,-1.73,3.19,-1594.98,841.1,4437.75,0,0,0,0
96.03,15.27,-17.81,-1526.98,1001.1,4590.75,0,0,0,0
-100.97,-17.73,21.19,-1562.98,881.1,4462.75,0,0,0,0
-1.97,4.27,1.19,-1564.98,862.1,4416.75,0,0,0,0
-28.97,-12.73,6.19,-1546.98,864.1,4444.75,0.0,0.0,-1.7,0.0
-24.97,-1.73,6.19,-1567.98,915.1,4493.75,0,0,0,0
-14.97,-0.73,4.19,-1577.98,857.1,4457.75,0,0,0,0
3.03,-4.73,0.19,-1539.98,895.1,4491.75,0,0,0,0
-23.97,-1.73,5.19,-1563.98,905.1,4456.75,0,0,0,0
13.03,-12.73,-2.81,-1529.98,868.1,4447.75,0,0,0,0
-3.97,-0.73,2.19,-1539.98,955.1,4563.75,0,0,0,0
-29.97,-2.73,7.19,-1565.98,882.1,4465.75,0,0,0,0
2.03,1.27,1.19,-1552.98,893.1,4503.75,0,0,0,0
-35.97,-5.73,9.19,-1566.98,854.1,4442.75,0,0,0,0
25.03,5.27,-3.81,-1568.98,897.1,4478.75,0,0,0,0
4.03,-4.73,0.19,-1557.98,877.1,4463.75,0,0,0,0
15.03,4.27,-1.81,-1570.98,925.1,4499.75,0.0,0.0,-1.7,0.0
-6.97,-1.73,2.19,-1569.98,861.1,4458.75,0,0,0,0
20.03,-0.73,-2.81,-1559.98,918.1,4495.75,0,0,0,0
12.03,1.27,-0.81,-1559.98,914.1,4548.75,0,0,0,0
4.03,1.27,0.19,-1553.98,939.1,4516.75,0,0,0,0
-54.97,-6.73,12.19,-1590.98,816.1,4423.75,0,0,0,0
63.03,5.27,-12.81,-1533.98,899.1,4487.75,0,0,0,0
16.03,3.27,-0.81,-1568.98,952.1,4560.75,0.0,0.0,-1.7,0.0
-22.97,-4.73,6.19,-1577.98,837.1,4404.75,0,0,0,0
36.03,3.27,-6.81,-1541.98,913.1,4468.75,0,0,0,0
-5.97,-0.73,2.19,-1544.98,934.1,4487.75,0,0,0,0
-38.97,-8.73,8.19,-1545.98,857.1,4458.75,0,0,0,0
22.03,3.27,-2.81,-1544.98,892.1,4489.75,0,0,0,0
6.03,2.27,-0.81,-1555.98,951.1,4481.75,0,0,0,0
8.03,1.27,0.19,-1560.98,911.1,4468.75,0,0,0,0
-10.97,-2.73,4.19,-1561.98,883.1,4479.75,0,0,0,0
-31.97,2.27,8.19,-1561.98,890.1,4521.75,0,0,0,0
-12.97,0.27,4.19,-1550.98,831.1,4437.75,0,0,0,0
20.03,-1.73,-1.81,-1549.98,896.1,4479.75,0,0,0,0
5.03,2.27,-0.81,-1558.98,923.1,4491.75,0.0,0.0,-1.7,0.0
5.03,2.27,1.19,-1565.98,881.1,4468.75,0,0,0,0
7.03,-2.73,0.19,-1554.98,884.1,4455.75,0,0,0,0
4.03,2.27,0.19,-1571.98,925.1,4515.75,0,0,0,0
-14.97,-5.73,3.19,-1557.98,867.1,4475.75,0,0,0,0
9.03,1.27,-0.81,-1554.98,915.1,4508.75,0,0,0,0
0.03,-0.73,1.19,-1553.98,897.1,4489.75,0,0,0,0
-10.97,-2.73,4.19,-1558.98,877.1,4476.75,0.0,0.0,-1.7,0.0
7.03,1.27,-0.81,-1554.98,913.1,4472.75,0,0,0,0
8.03,-0.73,-0.81,-1559.98,900.1,4483.75,0,0,0,0
-8.97,-1.73,3.19,-1561.98,923.1,4486.75,0,0,0,0
-21.97,-4.73,6.19,-1566.98,849.1,4475.75,0,0,0,0
15.03,1.27,-2.81,-1551.98,900.1,4496.75,0,0,0,0
-8.97,-2.73,3.19,-1568.98,893.1,4478.75,0,0,0,0
17.03,4.27,-2.81,-1542.98,930.1,4496.75,0.0,0.0,-1.7,0.0
-17.97,-5.73,5.19,-1560.98,876.1,4444.75,0,0,0,0
24.03,1.27,-3.81,-1537.98,914.1,4494.75,0,0,0,0
-15.97,-2.73,5.19,-1547.98,895.1,4484.75,0,0,0,0
43.03,-2.73,-8.81,-1515.98,949.1,4443.75,0.0,0.0,-1.7,0.0
-34.97,-4.73,9.19,-1596.98,843.1,4359.75,0,0,0,0
78.03,13.27,-13.81,-1576.98,975.1,4538.75,0,0,0,0
19.03,4.27,-2.81,-1562.98,978.1,4534.75,0,0,0,0
-63.97,-14.73,13.19,-1564.98,869.1,4454.75,0,0,0,0
-8.97,3.27,2.19,-1570.98,882.1,4524.75,0,0,0,0
-6.97,-6.73,1.19,-1552.98,860.1,4467.75,0,0,0,0
-25.97,-6.73,7.19,-1563.98,837.1,4448.75,0.0,0.0,-1.7,0.0
27.03,5.27,-2.81,-1564.98,911.1,4514.75,0,0,0,0
6.03,-1.73,0.19,-1581.98,892.1,4464.75,0,0,0,0
6.03,1.27,0.19,-1567.98,907.1,4488.75,0,0,0,0
15.03,4.27,-0.81,-1560.98,898.1,4494.75,0,0,0,0
0.03,-2.73,1.19,-1557.98,882.1,4508.75,0,0,0,0
-8.97,-3.73,3.19,-1569.98,891.1,4493.75,0,0,0,0
3.03,1.27,0.19,-1560.98,896.1,4458.75,0.0,0.0,-1.7,0.0
-11.97,-2.73,3.19,-1557.98,868.1,4461.75,0,0,0,0
-2.97,0.27,1.19,-1572.98,906.1,4490.75,0,0,0,0
-1.97,-1.73,2.19,-1574.98,862.1,4466.75,0,0,0,0
-0.97,-2.73,1.19,-1570.98,891.1,4468.75,0,0,0,0
7.03,1.27,0.19,-1552.98,908.1,4472.75,0,0,0,0
2.03,0.27,2.19,-1569.98,895.1,4500.75,0,0,0,0
-5.97,-1.73,3.19,-1582.98,886.1,4486.75,0.0,0.0,-1.7,0.0
-14.97,-2.73,4.19,-1618.98,887.1,4354.75,0,0,0,0
227.03,-2.73,-39.81,-1409.98,875.1,4493.75,0,0,0,0
-276.97,-49.73,56.19,-1590.98,831.1,4399.75,0,0,0,0
-132.97,-37.73,28.19,-1577.98,582.1,4231.75,0,0,0,0
319.03,69.27,-62.81,-1512.98,1142.1,4677.75,0,0,0,0
-149.97,-34.73,32.19,-1566.98,894.1,4467.75,0,0,0,0
6.03,8.27,0.19,-1602.98,855.1,4443.75,0.0,0.0,-1.7,0.0
64.03,20.27,-10.81,-1573.98,1010.1,4608.75,0,0,0,0
-122.97,-34.73,23.19,-1555.98,795.1,4357.75,0,0,0,0
91.03,23.27,-16.81,-1569.98,974.1,4554.75,0,0,0,0
-7.97,-5.73,3.19,-1550.98,905.1,4475.75,0,0,0,0
-40.97,-12.73,10.19,-1561.98,849.1,4479.75,0,0,0,0
61.03,15.27,-9.81,-1564.98,962.1,4551.75,0,0,0,0
-40.97,-10.73,10.19,-1563.98,873.1,4465.75,0.0,0.0,-1.7,0.0
-31.97,-10.73,8.19,-1567.98,847.1,4474.75,0,0,0,0
79.03,14.27,-14.81,-1537.98,970.1,4560.75,0,0,0,0
-63.97,-11.73,14.19,-1552.98,841.1,4454.75,0,0,0,0
13.03,9.27,-1.81,-1565.98,941.1,4524.75,0.0,0.0,-1.7,0.0
23.03,7.27,-3.81,-1567.98,912.1,4489.75,0,0,0,0
2.03,-1.73,0.19,-1555.98,918.1,4455.75,0,0,0,0
1.03,2.27,1.19,-1570.98,890.1,4481.75,0,0,0,0
19.03,1.27,-2.81,-1556.98,932.1,4495.75,0,0,0,0
-27.97,-7.73,7.19,-1562.98,889.1,4467.75,0,0,0,0
24.03,10.27,-2.81,-1575.98,959.1,4529.75,0,0,0,0
-4.97,-8.73,1.19,-1545.98,911.1,4434.75,0.0,0.0,-1.7,0.0
-35.97,-1.73,9.19,-1603.98,907.1,4488.75,0,0,0,0
42.03,12.27,-6.81,-1578.98,896.1,4473.75,0,0,0,0
-0.97,-4.73,1.19,-1546.98,919.1,4469.75,0,0,0,0
-20.97,-8.73,4.19,-1556.98,879.1,4481.75,0,0,0,0
2.03,1.27,0.19,-1557.98,918.1,4475.75,0,0,0,0
-9.97,-1.73,3.19,-1568.98,883.1,4469.75,0,0,0,0
1.03,0.27,0.19,-1559.98,911.1,4520.75,0.0,0.0,-1.7,0.0
0.03,-0.73,-2.81,-1555.98,869.1,4455.75,0,0,0,0
-9.97,-6.73,3.19,-1551.98,886.1,4469.75,0,0,0,0
17.03,6.27,-1.81,-1562.98,922.1,4511.75,0,0,0,0
-10.97,-1.73,4.19,-1568.98,876.1,4477.75,0,0,0,0
-2.97,-3.73,2.19,-1568.98,903.1,4473.75,0,0,0,0
27.03,6.27,-4.81,-1568.98,939.1,4495.75,0,0,0,0
-24.97,-2.73,5.19,-1574.98,899.1,4468.75,0.0,0.0,-1.7,0.0
8.03,3.27,1.19,-1588.98,897.1,4526.75,0,0,0,0
8.03,0.27,-0.81,-1576.98,935.1,4506.75,0,0,0,0
0.03,-2.73,2.19,-1574.98,909.1,4453.75,0,0,0,0
13.03,1.27,-1.81,-1577.98,928.1,4489.75,0,0,0,0
1.03,0.27,1.19,-1571.98,939.1,4492.75,0,0,0,0
-10.97,-3.73,3.19,-1576.98,905.1,4472.75,0,0,0,0
-7.97,-2.73,3.19,-1577.98,879.1,4501.75,0.0,0.0,-1.7,0.0
-4.97,-0.73,2.19,-1588.98,881.1,4467.75,0,0,0,0
4.03,2.27,0.19,-1578.98,919.1,4495.75,0,0,0,0
-20.97,-5.73,5.19,-1587.98,873.1,4482.75,0,0,0,0
27.03,2.27,-3.81,-1572.98,912.1,4488.75,0,0,0,0
-3.97,-1.73,2.19,-1568.98,930.1,4478.75,0,0,0,0
-36.97,-2.73,9.19,-1578.98,884.1,4458.75,0,0,0,0
37.03,6.27,-5.81,-1561.98,908.1,4460.75,0.0,0.0,-1.7,0.0
-21.97,-8.73,7.19,-1579.98,882.1,4471.75,0,0,0,0
57.03,6.27,-9.81,-1561.98,956.1,4494.75,0,0,0,0
21.03,3.27,-2.81,-1565.98,953.1,4506.75,0,0,0,0
-33.97,-5.73,8.19,-1573.98,893.1,4457.75,0,0,0,0
34.03,6.27,-5.81,-1570.98,953.1,4521.75,0,0,0,0
-61.97,-27.73,3.19,-1422.98,829.1,4356.75,0,0,0,0
310.03,9.27,-62.81,-1740.98,1006.1,4605.75,0.0,0.0,-1.7,0.0
-28.97,16.27,9.19,-1672.98,1102.1,4646.75,0,0,0,0
-77.97,-16.73,13.19,-1594.98,918.1,4511.75,0,0,0,0
-40.97,-21.73,4.19,-1525.98,928.1,4491.75,0,0,0,0
-43.97,-3.73,7.19,-1507.98,766.1,4469.75,0,0,0,0
-4.97,-6.73,1.19,-1500.98,823.1,4445.75,0,0,0,0
13.03,8.27,1.19,-1571.98,858.1,4474.75,0,0,0,0
47.03,6.27,-8.81,-1568.98,929.1,4475.75,0.0,0.0,-1.7,0.0
27.03,2.27,-1.81,-1573.98,953.1,4485.75,0,0,0,0
-29.97,-3.73,7.19,-1598.98,912.1,4477.75,0,0,0,0
3.03,0.27,0.19,-1564.98,904.1,4471.75,0,0,0,0
4.03,-0.73,0.19,-1560.98,918.1,4492.75,0.0,0.0,-1.7,0.0
-16.97,-2.73,4.19,-1579.98,910.1,4476.75,0,0,0,0
-20.97,-3.73,6.19,-1576.98,868.1,4448.75,0,0,0,0
-10.97,-2.73,3.19,-1562.98,907.1,4476.75,0,0,0,0
2.03,0.27,0.19,-1568.98,903.1,4463.75,0,0,0,0
9.03,1.27,0.19,-1570.98,924.1,4482.75,0,0,0,0
3.03,3.27,2.19,-1594.98,951.1,4504.75,0,0,0,0
19.03,-1.73,-1.81,-1562.98,925.1,4501.75,0.0,0.0,-1.7,0.0
-17.97,-4.73,5.19,-1549.98,945.1,4488.75,0,0,0,0
-27.97,-6.73,7.19,-1577.98,842.1,4435.75,0,0,0,0
38.03,5.27,-6.81,-1549.98,966.1,4537.75,0,0,0,0
-43.97,-5.73,11.19,-1578.98,880.1,4462.75,0,0,0,0
14.03,-0.73,-2.81,-1568.98,884.1,4452.75,0,0,0,0
2.03,0.27,0.19,-1565.98,927.1,4484.75,0,0,0,0
-19.97,-3.73,5.19,-1550.98,875.1,4463.75,0.0,0.0,-1.7,0.0
13.03,1.27,-0.81,-1557.98,926.1,4503.75,0,0,0,0
1.03,-0.73,1.19,-1589.98,931.1,4483.75,0,0,0,0
4.03,1.27,0.19,-1553.98,920.1,4475.75,0,0,0,0
2.03,-0.73,1.19,-1561.98,899.1,4462.75,0,0,0,0
-3.97,-0.73,2.19,-1576.98,923.1,4508.75,0,0,0,0
-2.97,-1.73,2.19,-1569.98,896.1,4475.75,0,0,0,0
-1.97,-1.73,1.19,-1548.98,923.1,4468.75,0.0,0.0,-1.7,0.0
4.03,1.27,1.19,-1573.98,901.1,4476.75,0,0,0,0
5.03,0.27,1.19,-1573.98,909.1,4493.75,0,0,0,0
4.03,-0.73,1.19,-1571.98,898.1,4479.75,0,0,0,0
-4.97,-0.73,3.19,-1556.98,903.1,4494.75,0,0,0,0
-1.97,-1.73,1.19,-1564.98,891.1,4494.75,0,0,0,0
2.03,0.27,1.19,-1567.98,917.1,4502.75,0,0,0,0
-9.97,-3.73,3.19,-1563.98,874.1,4486.75,0.0,0.0,-1.7,0.0
5.03,-0.73,0.19,-1564.98,900.1,4496.75,0,0,0,0
1.03,0.27,1.19,-1571.98,926.1,4488.75,0,0,0,0
-0.97,-1.73,1.19,-1560.98,915.1,4461.75,0,0,0,0
-0.97,-1.73,1.19,-1568.98,903.1,4483.75,0,0,0,0
-0.97,-1.73,2.19,-1558.98,897.1,4473.75,0,0,0,0
-3.97,-2.73,2.19,-1558.98,910.1,4475.75,0,0,0,0
1.03,0.27,0.19,-1570.98,916.1,4476.75,0.0,0.0,-1.7,0.0
3.03,0.27,1.19,-1559.98,910.1,4503.75,0,0,0,0
2.03,-0.73,0.19,-1570.98,909.1,4474.75,0,0,0,0
14.03,2.27,-1.81,-1561.98,921.1,4490.75,0,0,0,0
-0.97,-2.73,1.19,-1564.98,896.1,4460.75,0,0,0,0
15.03,0.27,-1.81,-1550.98,915.1,4507.75,0,0,0,0
-14.97,-3.73,3.19,-1570.98,926.1,4490.75,0,0,0,0
-10.97,-3.73,3.19,-1567.98,879.1,4480.75,0.0,0.0,-1.7,0.0
14.03,-0.73,-1.81,-1547.98,897.1,4482.75,0,0,0,0
43.03,8.27,-7.81,-1515.98,1038.1,4514.75,0,0,0,0
-20.97,-2.73,5.19,-1617.98,826.1,4379.75,0,0,0,0
98.03,11.27,-14.81,-1554.98,996.1,4566.75,0.0,0.0,-1.7,0.0
-5.97,6.27,2.19,-1578.98,1022.1,4548.75,0,0,0,0
-51.97,-14.73,12.19,-1579.98,813.1,4409.75,0,0,0,0
65.03,12.27,-11.81,-1577.98,992.1,4550.75,0,0,0,0
-4.97,-0.73,2.19,-1580.98,868.1,4488.75,0,0,0,0
23.03,-0.73,-2.81,-1541.98,895.1,4490.75,0,0,0,0
1.03,1.27,2.19,-1562.98,918.1,4522.75,0,0,0,0
-17.97,-2.73,4.19,-1580.98,854.1,4430.75,0.0,0.0,-1.7,0.0
33.03,4.27,-5.81,-1568.98,950.1,4479.75,0,0,0,0
-9.97,-5.73,4.19,-1572.98,878.1,4455.75,0,0,0,0
41.03,7.27,-7.81,-1542.98,970.1,4527.75,0,0,0,0
-72.97,-13.73,16.19,-1584.98,860.1,4420.75,0,0,0,0
11.03,0.27,-1.81,-1551.98,867.1,4454.75,0,0,0,0
76.03,13.27,-13.81,-1519.98,981.1,4599.75,0,0,0,0
-68.97,-10.73,14.19,-1575.98,894.1,4463.75,0.0,0.0,-1.7,0.0
74.03,7.27,-13.81,-1548.98,924.1,4475.75,0,0,0,0
27.03,8.27,-4.81,-1547.98,1020.1,4600.75,0,0,0,0
-113.97,-19.73,25.19,-1593.98,817.1,4382.75,0,0,0,0
47.03,1.27,-8.81,-1548.98,882.1,4486.75,0,0,0,0
65.03,11.27,-10.81,-1553.98,1002.1,4582.75,0,0,0,0
-73.97,-12.73,14.19,-1572.98,926.1,4486.75,0,0,0,0
-50.97,-9.73,12.19,-1591.98,805.1,4481.75,0.0,0.0,-1.7,0.0
70.03,11.27,-12.81,-1540.98,1016.1,4568.75,0,0,0,0
-72.97,-11.73,15.19,-1574.98,898.1,4429.75,0,0,0,0
-25.97,-2.73,7.19,-1598.98,815.1,4397.75,0,0,0,0
58.03,7.27,-10.81,-1538.98,946.1,4515.75,0,0,0,0
-42.97,-11.73,9.19,-1535.98,901.1,4484.75,0,0,0,0
4.03,-6.73,-1.81,-1544.98,872.1,4432.75,0,0,0,0
39.03,7.27,-3.81,-1582.98,946.1,4567.75,0.0,0.0,-1.7,0.0
-15.97,-4.73,4.19,-1574.98,903.1,4452.75,0,0,0,0
-12.97,-4.73,5.19,-1573.98,895.1,4472.75,0,0,0,0
16.03,3.27,-2.81,-1566.98,962.1,4467.75,0,0,0,0
-15.97,-6.73,5.19,-1558.98,886.1,4442.75,0,0,0,0
-2.97,-1.73,1.19,-1562.98,896.1,4484.75,0,0,0,0
17.03,2.27,-2.81,-1549.98,918.1,4495.75,0,0,0,0
-18.97,-14.73,2.19,-1530.98,875.1,4435.75,0.0,0.0,-1.7,0.0
-59.97,-14.73,12.19,-1556.98,894.1,4452.75,0,0,0,0
-9.97,-0.73,4.19,-1595.98,840.1,4462.75,0,0,0,0
75.03,9.27,-14.81,-1568.98,1014.1,4488.75,0,0,0,0
58.03,11.27,-5.81,-1595.98,909.1,4579.75,0.0,0.0,-1.7,0.0
79.03,10.27,-13.81,-1562.98,1027.1,4484.75,0,0,0,0
-44.97,-10.73,9.19,-1581.98,877.1,4398.75,0,0,0,0
3.03,-1.73,-0.81,-1564.98,918.1,4537.75,0,0,0,0
-7.97,-1.73,2.19,-1543.98,904.1,4525.75,0,0,0,0
-48.97,-12.73,11.19,-1587.98,848.1,4445.75,0,0,0,0
28.03,6.27,-3.81,-1568.98,896.1,4472.75,0,0,0,0
0.03,-0.73,1.19,-1559.98,913.1,4484.75,0.0,0.0,-1.7,0.0
3.03,-1.73,1.19,-1571.98,912.1,4463.75,0,0,0,0
1.03,-1.73,1.19,-1567.98,932.1,4515.75,0,0,0,0
-12.97,-4.73,3.19,-1551.98,906.1,4466.75,0,0,0,0
-3.97,-0.73,2.19,-1567.98,911.1,4484.75,0,0,0,0
-1.97,-0.73,1.19,-1570.98,897.1,4481.75,0,0,0,0
3.03,-0.73,0.19,-1568.98,925.1,4475.75,0,0,0,0
6.03,0.27,0.19,-1566.98,918.1,4505.75,0.0,0.0,-1.7,0.0
3.03,1.27,1.19,-1563.98,910.1,4474.75,0,0,0,0
2.03,-0.73,0.19,-1577.98,914.1,4478.75,0,0,0,0
-5.97,-2.73,3.19,-1558.98,887.1,4497.75,0,0,0,0
6.03,0.27,0.19,-1551.98,906.1,4467.75,0,0,0,0
0.03,-0.73,1.19,-1562.98,919.1,4465.75,0,0,0,0
-1.97,-0.73,2.19,-1567.98,924.1,4447.75,0,0,0,0
6.03,0.27,0.19,-1576.98,923.1,4483.75,0.0,0.0,-1.7,0.0
-1.97,-1.73,1.19,-1567.98,906.1,4463.75,0,0,0,0
13.03,2.27,-1.81,-1544.98,950.1,4486.75,0,0,0,0
-14.97,-3.73,4.19,-1576.98,898.1,4479.75,0,0,0,0
-1.97,-0.73,1.19,-1580.98,901.1,4460.75,0,0,0,0
7.03,-0.73,0.19,-1567.98,908.1,4497.75,0,0,0,0
-1.97,-0.73,1.19,-1571.98,916.1,4497.75,0,0,0,0
-0.97,0.27,1.19,-1577.98,924.1,4493.75,0.0,0.0,-1.7,0.0
13.03,0.27,-0.81,-1583.98,924.1,4496.75,0,0,0,0
-6.97,-1.73,3.19,-1577.98,898.1,4496.75,0,0,0,0
7.03,-0.73,1.19,-1572.98,902.1,4459.75,0,0,0,0
78.03,20.27,-13.81,-1551.98,1010.1,4556.75,0,0,0,0
-35.97,-9.73,8.19,-1570.98,919.1,4481.75,0,0,0,0
-6.97,1.27,3.19,-1594.98,895.1,4439.75,0,0,0,0
42.03,4.27,-6.81,-1555.98,935.1,4498.75,0.0,0.0,-1.7,0.0
-24.97,-5.73,6.19,-1561.98,892.1,4474.75,0,0,0,0
23.03,2.27,-3.81,-1549.98,934.1,4514.75,0,0,0,0
-6.97,-1.73,2.19,-1569.98,947.1,4502.75,0,0,0,0
-26.97,-8.73,7.19,-1549.98,840.1,4470.75,0,0,0,0
37.03,11.27,-6.81,-1556.98,982.1,4556.75,0,0,0,0
2.03,-0.73,1.19,-1561.98,865.1,4446.75,0,0,0,0
58.03,10.27,-8.81,-1559.98,951.1,4531.75,0.0,0.0,-1.7,0.0
-19.97,-4.73,5.19,-1577.98,924.1,4472.75,0,0,0,0
5.03,3.27,-0.81,-1576.98,898.1,4464.75,0,0,0,0
-2.97,-3.73,3.19,-1578.98,894.1,4470.75,0,0,0,0
-10.97,-3.73,4.19,-1566.98,895.1,4482.75,0,0,0,0
34.03,8.27,-5.81,-1557.98,956.1,4496.75,0,0,0,0
-34.97,-9.73,8.19,-1562.98,883.1,4457.75,0,0,0,0
11.03,0.27,-0.81,-1565.98,907.1,4479.75,0.0,0.0,-1.7,0.0
22.03,5.27,-2.81,-1561.98,949.1,4522.75,0,0,0,0
-32.97,-5.73,8.19,-1597.98,892.1,4445.75,0,0,0,0
17.03,3.27,-2.81,-1556.98,952.1,4532.75,0,0,0,0
-18.97,-5.73,5.19,-1566.98,895.1,4484.75,0,0,0,0
-16.97,-6.73,4.19,-1550.98,887.1,4472.75,0,0,0,0
2.03,-0.73,0.19,-1541.98,918.1,4499.75,0,0,0,0
-17.97,-1.73,4.19,-1552.98,910.1,4425.75,0,0,0,0
-15.97,3.27,4.19,-1569.98,853.1,4516.75,0,0,0,0
5.03,0.27,1.19,-1573.98,979.1,4485.75,0,0,0,0
-38.97,-13.73,8.19,-1549.98,883.1,4440.75,0,0,0,0
6.03,-0.73,-0.81,-1557.98,949.1,4511.75,0,0,0,0
-44.97,-10.73,10.19,-1578.98,857.1,4455.75,0.0,0.0,-1.7,0.0
28.03,5.27,-3.81,-1563.98,912.1,4493.75,0,0,0,0
-1.97,-2.73,2.19,-1567.98,923.1,4486.75,0,0,0,0
6.03,3.27,3.19,-1565.98,917.1,4506.75,0,0,0,0
-1.97,-2.73,2.19,-1568.98,906.1,4471.75,0,0,0,0
5.03,-1.73,0.19,-1555.98,924.1,4495.75,0,0,0,0
-20.97,-3.73,5.19,-1587.98,899.1,4486.75,0,0,0,0
38.03,-0.73,-7.81,-1535.98,901.1,4463.75,0.0,0.0,-1.7,0.0
-62.97,-14.73,13.19,-1572.98,887.1,4448.75,0,0,0,0
-3.97,-2.73,2.19,-1548.98,867.1,4447.75,0,0,0,0
41.03,9.27,-7.81,-1551.98,956.1,4505.75,0,0,0,0
-27.97,-9.73,7.19,-1566.98,894.1,4440.75,0.0,0.0,-1.7,0.0
10.03,0.27,0.19,-1566.98,923.1,4496.75,0,0,0,0
13.03,4.27,-1.81,-1559.98,957.1,4511.75,0,0,0,0
-37.97,-7.73,8.19,-1569.98,900.1,4416.75,0,0,0,0
40.03,10.27,-8.81,-1527.98,971.1,4474.75,0,0,0,0
-21.97,-8.73,5.19,-1548.98,886.1,4470.75,0,0,0,0
-25.97,-7.73,6.19,-1558.98,902.1,4488.75,0,0,0,0
28.03,6.27,-3.81,-1572.98,914.1,4517.75,0.0,0.0,-1.7,0.0
12.03,0.27,-0.81,-1558.98,938.1,4509.75,0,0,0,0
-22.97,-9.73,6.19,-1565.98,918.1,4479.75,0,0,0,0
16.03,4.27,-1.81,-1570.98,945.1,4504.75,0,0,0,0
-10.97,-3.73,3.19,-1562.98,897.1,4437.75,0,0,0,0
16.03,5.27,-1.81,-1566.98,932.1,4514.75,0,0,0,0
3.03,-0.73,1.19,-1570.98,898.1,4474.75,0,0,0,0
-8.97,-3.73,3.19,-1551.98,897.1,4472.75,0.0,0.0,-1.7,0.0
-2.97,0.27,1.19,-1576.98,917.1,4496.75,0,0,0,0
6.03,1.27,0.19,-1570.98,923.1,4487.75,0,0,0,0
-7.97,-3.73,3.19,-1566.98,911.1,4460.75,0,0,0,0
14.03,4.27,-1.81,-1553.98,943.1,4464.75,0.0,0.0,-1.7,0.0
-0.97,-0.73,1.19,-1570.98,917.1,4488.75,0,0,0,0
-5.97,-3.73,2.19,-1562.98,920.1,4466.75,0,0,0,0
4.03,1.27,0.19,-1570.98,928.1,4494.75,0,0,0,0
2.03,1.27,1.19,-1567.98,916.1,4488.75,0,0,0,0
-7.97,-1.73,2.19,-1566.98,916.1,4481.75,0,0,0,0
7.03,0.27,0.19,-1563.98,923.1,4480.75,0,0,0,0
2.03,-1.73,1.19,-1570.98,907.1,4467.75,0.0,0.0,-1.7,0.0
-12.97,-3.73,3.19,-1581.98,916.1,4456.75,0,0,0,0
-6.97,-1.73,2.19,-1566.98,887.1,4486.75,0,0,0,0
7.03,0.27,0.19,-1568.98,920.1,4493.75,0,0,0,0
-2.97,-0.73,1.19,-1554.98,928.1,4487.75,0,0,0,0
0.03,0.27,1.19,-1557.98,930.1,4493.75,0,0,0,0
-3.97,-1.73,2.19,-1559.98,916.1,4483.75,0,0,0,0
6.03,1.27,0.19,-1560.98,933.1,4515.75,0.0,0.0,-1.7,0.0
3.03,0.27,0.19,-1553.98,914.1,4491.75,0,0,0,0
3.03,0.27,0.19,-1558.98,941.1,4504.75,0,0,0,0
1.03,-0.73,1.19,-1548.98,939.1,4484.75,0,0,0,0
3.03,-0.73,1.19,-1554.98,903.1,4491.75,0,0,0,0
-4.97,-2.73,2.19,-1556.98,912.1,4470.75,0,0,0,0
2.03,-0.73,1.19,-1566.98,923.1,4498.75,0,0,0,0
7.03,0.27,0.19,-1559.98,938.1,4483.75,0.0,0.0,-1.7,0.0
-1.97,-2.73,2.19,-1564.98,909.1,4491.75,0,0,0,0
3.03,-0.73,1.19,-1562.98,916.1,4484.75,0,0,0,0
-1.97,-0.73,1.19,-1551.98,911.1,4484.75,0,0,0,0
3.03,0.27,1.19,-1563.98,917.1,4459.75,0,0,0,0
0.03,-0.73,1.19,-1557.98,921.1,4497.75,0,0,0,0
-3.97,-2.73,2.19,-1574.98,910.1,4504.75,0,0,0,0
0.03,-1.73,1.19,-1543.98,926.1,4477.75,0.0,0.0,-1.7,0.0
0.03,-0.73,1.19,-1567.98,924.1,4471.75,0,0,0,0
0.03,-0.73,1.19,-1548.98,912.1,4491.75,0,0,0,0
-4.97,-2.73,2.19,-1576.98,904.1,4472.75,0,0,0,0
1.03,-0.73,0.19,-1586.98,911.1,4464.75,0,0,0,0
4.03,1.27,0.19,-1557.98,914.1,4484.75,0,0,0,0
-2.97,-0.73,2.19,-1549.98,914.1,4477.75,0,0,0,0
1.03,1.27,0.19,-1576.98,924.1,4475.75,0.0,0.0,-1.7,0.0
-0.97,-0.73,2.19,-1557.98,932.1,4475.75,0,0,0,0
3.03,0.27,0.19,-1564.98,926.1,4448.75,0,0,0,0
-4.97,-0.73,2.19,-1575.98,909.1,4468.75,0,0,0,0
-10.97,-4.73,4.19,-1583.98,911.1,4489.75,0,0,0,0
4.03,0.27,0.19,-1576.98,939.1,4497.75,0,0,0,0
0.03,0.27,1.19,-1570.98,940.1,4474.75,0,0,0,0
-0.97,-0.73,1.19,-1574.98,922.1,4453.75,0.0,0.0,-1.7,0.0
2.03,-1.73,1.19,-1559.98,892.1,4496.75,0,0,0,0
2.03,-1.73,1.19,-1562.98,915.1,4499.75,0,0,0,0
22.03,3.27,-2.81,-1562.98,923.1,4500.75,0,0,0,0
-0.97,-0.73,1.19,-1559.98,932.1,4489.75,0,0,0,0
-6.97,-1.73,2.19,-1573.98,916.1,4473.75,0,0,0,0
-1.97,-3.73,2.19,-1556.98,886.1,4491.75,0,0,0,0
22.03,4.27,-3.81,-1559.98,943.1,4496.75,0.0,0.0,-1.7,0.0
6.03,1.27,-0.81,-1572.98,924.1,4515.75,0,0,0,0
-14.97,-4.73,4.19,-1576.98,912.1,4465.75,0,0,0,0
-10.97,-3.73,3.19,-1570.98,916.1,4435.75,0,0,0,0
4.03,1.27,1.19,-1569.98,931.1,4503.75,0,0,0,0
9.03,0.27,-0.81,-1569.98,934.1,4499.75,0,0,0,0
3.03,-1.73,0.19,-1553.98,928.1,4512.75,0,0,0,0
-12.97,-2.73,3.19,-1567.98,919.1,4467.75,0.0,0.0,-1.7,0.0
-12.97,-5.73,4.19,-1580.98,904.1,4449.75,0,0,0,0
0.03,-0.73,0.19,-1578.98,924.1,4471.75,0,0,0,0
-4.97,-2.73,2.19,-1561.98,924.1,4502.75,0,0,0,0
-1.97,-1.73,1.19,-1580.98,934.1,4495.75,0,0,0,0
-2.97,-1.73,1.19,-1557.98,928.1,4483.75,0,0,0,0
3.03,1.27,0.19,-1549.98,929.1,4490.75,0,0,0,0
12.03,2.27,-0.81,-1569.98,913.1,4513.75,0.0,0.0,-1.7,0.0
0.03,0.27,0.19,-1567.98,921.1,4519.75,0,0,0,0
-10.97,-3.73,3.19,-1565.98,917.1,4486.75,0,0,0,0
-1.97,-0.73,2.19,-1550.98,902.1,4458.75,0,0,0,0
10.03,0.27,-0.81,-1557.98,932.1,4489.75,0,0,0,0
0.03,-1.73,1.19,-1545.98,931.1,4497.75,0,0,0,0
-3.97,-1.73,2.19,-1576.98,909.1,4459.75,0,0,0,0
3.03,0.27,0.19,-1570.98,918.1,4482.75,0,0,0,0
0.03,0.27,1.19,-1573.98,930.1,4472.75,0,0,0,0
0,0,0,0,0,0,0,0,0,0
-3.97,-1.73,3.19,-1576.98,931.1,4480.75,0,0,0,0
13.03,3.27,-1.81,-1560.98,930.1,4504.75,0,0,0,0
-1.97,-0.73,1.19,-1571.98,920.1,4462.75,0,0,0,0
-11.97,-3.73,3.19,-1566.98,904.1,4477.75,0.0,0.0,-1.7,0.0
2.03,-1.73,1.19,-1556.98,903.1,4498.75,0,0,0,0
13.03,2.27,-1.81,-1569.98,933.1,4502.75,0,0,0,0
-15.97,-3.73,4.19,-1577.98,918.1,4482.75,0,0,0,0
6.03,-0.73,1.19,-1569.98,900.1,4489.75,0,0,0,0
11.03,2.27,-0.81,-1558.98,917.1,4469.75,0,0,0,0
-5.97,-0.73,2.19,-1561.98,928.1,4493.75,0,0,0,0
1.03,0.27,1.19,-1564.98,917.1,4490.75,0.0,0.0,-1.7,0.0
9.03,0.27,-0.81,-1550.98,946.1,4498.75,0,0,0,0
-8.97,-1.73,2.19,-1573.98,924.1,4497.75,0,0,0,0
-1.97,0.27,1.19,-1575.98,918.1,4477.75,0,0,0,0
5.03,-0.73,0.19,-1563.98,915.1,4493.75,0,0,0,0
6.03,0.27,0.19,-1575.98,941.1,4498.75,0,0,0,0
-5.97,-1.73,2.19,-1557.98,931.1,4458.75,0,0,0,0
-4.97,-2.73,2.19,-1564.98,903.1,4484.75,0.0,0.0,-1.7,0.0
11.03,2.27,-0.81,-1554.98,920.1,4470.75,0,0,0,0
-2.97,-1.73,2.19,-1569.98,920.1,4498.75,0,0,0,0
-4.97,-1.73,3.19,-1585.98,917.1,4498.75,0,0,0,0
5.03,0.27,1.19,-1571.98,919.1,4476.75,0,0,0,0
7.03,1.27,0.19,-1551.98,932.1,4489.75,0,0,0,0
-6.97,-2.73,2.19,-1561.98,911.1,4521.75,0,0,0,0
-6.97,-2.73,2.19,-1561.98,876.1,4475.75,0.0,0.0,-1.7,0.0
11.03,2.27,-0.81,-1564.98,949.1,4482.75,0,0,0,0
-8.97,-1.73,2.19,-1570.98,915.1,4476.75,0,0,0,0
-8.97,-2.73,3.19,-1584.98,900.1,4455.75,0,0,0,0
3.03,-1.73,0.19,-1559.98,924.1,4477.75,0,0,0,0
8.03,1.27,0.19,-1561.98,934.1,4501.75,0,0,0,0
-5.97,-0.73,2.19,-1556.98,926.1,4476.75,0,0,0,0
-9.97,-3.73,3.19,-1562.98,901.1,4502.75,0,0,0,0
12.03,0.27,-0.81,-1561.98,917.1,4476.75,0,0,0,0
0,0,0,0,0,0,0,0,0,0
11.03,1.27,-0.81,-1562.98,917.1,4496.75,0,0,0,0
-10.97,-3.73,3.19,-1561.98,903.1,4474.75,0,0,0,0
-2.97,-1.73,2.19,-1562.98,917.1,4473.75,0,0,0,0
9.03,1.27,-0.81,-1579.98,914.1,4488.75,0.0,0.0,-1.7,0.0
10.03,2.27,-0.81,-1568.98,926.1,4481.75,0,0,0,0
-6.97,-1.73,3.19,-1564.98,912.1,4494.75,0,0,0,0
6.03,1.27,-0.81,-1564.98,927.1,4490.75,0,0,0,0
7.03,0.27,-0.81,-1564.98,937.1,4473.75,0,0,0,0
-2.97,-1.73,2.19,-1570.98,917.1,4491.75,0,0,0,0
-8.97,-3.73,3.19,-1566.98,930.1,4462.75,0,0,0,0
-4.97,-2.73,2.19,-1577.98,918.1,4461.75,0.0,0.0,-1.7,0.0
8.03,0.27,0.19,-1577.98,945.1,4512.75,0,0,0,0
-17.97,-4.73,4.19,-1568.98,912.1,4474.75,0,0,0,0
-0.97,-1.73,1.19,-1555.98,912.1,4465.75,0,0,0,0
8.03,-0.73,1.19,-1560.98,921.1,4477.75,0,0,0,0
7.03,2.27,-0.81,-1548.98,952.1,4495.75,0,0,0,0
-8.97,-1.73,1.19,-1553.98,903.1,4465.75,0,0,0,0
0.03,-0.73,1.19,-1577.98,909.1,4450.75,0.0,0.0,-1.7,0.0
7.03,1.27,0.19,-1561.98,935.1,4476.75,0,0,0,0
-6.97,-0.73,2.19,-1581.98,929.1,4489.75,0,0,0,0
15.03,4.27,-1.81,-1568.98,916.1,4489.75,0,0,0,0
-27.97,-8.73,6.19,-1574.98,878.1,4437.75,0,0,0,0
10.03,2.27,0.19,-1550.98,926.1,4519.75,0,0,0,0
1.03,-0.73,1.19,-1574.98,918.1,4477.75,0,0,0,0
10.03,1.27,-0.81,-1560.98,933.1,4487.75,0.0,0.0,-1.7,0.0
-12.97,-3.73,4.19,-1571.98,930.1,4479.75,0,0,0,0
-1.97,-2.73,2.19,-1563.98,910.1,4478.75,0,0,0,0
5.03,1.27,0.19,-1559.98,908.1,4458.75,0,0,0,0
5.03,1.27,0.19,-1571.98,932.1,4500.75,0,0,0,0
-12.97,-3.73,4.19,-1563.98,896.1,4468.75,0,0,0,0
3.03,-0.73,0.19,-1571.98,924.1,4487.75,0,0,0,0
9.03,0.27,-0.81,-1562.98,924.1,4493.75,0.0,0.0,-1.7,0.0
-10.97,-2.73,3.19,-1568.98,919.1,4491.75,0,0,0,0
-1.97,-2.73,2.19,-1565.98,925.1,4487.75,0,0,0,0
8.03,0.27,0.19,-1578.98,918.1,4471.75,0,0,0,0
9.03,1.27,0.19,-1574.98,922.1,4487.75,0,0,0,0
-2.97,0.27,1.19,-1555.98,926.1,4469.75,0,0,0,0
-9.97,-1.73,3.19,-1566.98,902.1,4487.75,0,0,0,0
